Дата эксперимента: 28.10.2023 15:54:13
time;Accel_x;Accel_y;Accel_z;Gyro_x;Gyro_y;Gyro_z;Temperature
0.000;1.0168;-0.0225;0.1738;-4.2748;1.0916;-0.7557;26.1771;
0.020;1.0220;-0.0178;0.1738;-4.1603;1.0305;-0.8550;26.2712;
0.040;1.0195;-0.0242;0.1812;-4.1450;1.0229;-0.8702;26.1771;
0.060;1.0156;-0.0186;0.1785;-4.3511;0.8244;-0.8244;26.1771;
0.080;1.0132;-0.0210;0.1760;-4.3511;1.0763;-0.8931;26.1771;
0.100;1.0146;-0.0249;0.1711;-4.0611;1.0076;-0.7786;26.2712;
0.119;1.0212;-0.0149;0.1746;-4.1298;0.9237;-0.9695;26.2712;
0.140;1.0166;-0.0198;0.1799;-4.1908;1.1450;-0.9695;26.2712;
0.160;1.0190;-0.0266;0.1724;-4.3817;0.8092;-0.6641;26.1771;
0.181;1.0149;-0.0239;0.1709;-4.1298;1.0916;-0.8702;26.2712;
0.200;1.0156;-0.0171;0.1873;-4.2595;0.9695;-0.7557;26.1771;
0.220;1.0205;-0.0200;0.1724;-4.3588;0.8855;-0.7557;26.2712;
0.240;1.0281;-0.0188;0.1663;-4.2214;0.9771;-0.9313;26.1771;
0.260;1.0151;-0.0149;0.1794;-4.3893;1.0229;-0.8244;26.1771;
0.280;1.0166;-0.0212;0.1826;-4.0840;0.9542;-0.7557;26.1771;
0.300;1.0168;-0.0215;0.1755;-4.2061;0.9847;-0.9466;26.2712;
0.320;1.0176;-0.0171;0.1711;-4.3969;1.0763;-0.9084;26.2712;
0.340;1.0229;-0.0193;0.1672;-4.3130;0.8244;-0.6947;26.2712;
0.360;1.0166;-0.0251;0.1763;-4.1756;1.0534;-0.9237;26.1771;
0.380;1.0203;-0.0220;0.1614;-4.1908;0.8397;-0.8626;26.1771;
0.400;1.0144;-0.0159;0.1804;-4.2366;0.9466;-0.8855;26.1771;
0.420;1.0242;-0.0264;0.1694;-4.2672;0.9618;-0.8397;26.2712;
0.440;1.0212;-0.0212;0.1804;-4.1985;0.8855;-0.7328;26.2712;
0.460;1.0276;-0.0249;0.1809;-4.2672;0.9847;-0.9084;26.2712;
0.480;1.0134;-0.0154;0.1721;-4.1221;0.9542;-1.0305;26.2712;
0.500;1.0205;-0.0266;0.1741;-4.4656;1.0153;-0.7557;26.2712;
0.520;1.0168;-0.0176;0.1821;-4.2061;0.7328;-0.8550;26.1771;
0.540;1.0195;-0.0212;0.1787;-4.1985;0.9618;-0.9084;26.1771;
0.560;1.0205;-0.0208;0.1731;-4.3511;0.9313;-0.7405;26.2712;
0.580;1.0164;-0.0244;0.1746;-4.2366;0.8855;-0.8550;26.1771;
0.600;1.0173;-0.0220;0.1755;-4.0916;1.0229;-0.9160;26.0829;
0.620;1.0291;-0.0229;0.1770;-4.2443;0.6794;-0.9466;26.1771;
0.639;1.0356;-0.0288;0.1797;-4.0916;0.7557;-0.9237;26.1771;
0.660;0.9983;-0.0181;0.1753;-4.2061;0.5038;-0.9771;26.1771;
0.680;1.0112;-0.0286;0.1619;-4.1450;1.0763;-0.7252;26.2712;
0.700;1.0042;-0.0198;0.1631;-4.1908;0.9160;-0.7405;26.1771;
0.720;1.0278;-0.0229;0.1794;-4.0763;0.9237;-0.8321;26.2712;
0.740;1.0181;-0.0208;0.1619;-4.1908;0.7634;-0.8321;26.2712;
0.760;1.0349;-0.0234;0.1792;-4.2366;0.7252;-0.9847;26.1771;
0.780;1.0066;-0.0154;0.1721;-4.1145;0.9542;-0.8015;26.2712;
0.800;1.0352;-0.0166;0.1763;-4.2214;0.9237;-0.9008;26.2712;
0.820;1.0261;-0.0195;0.1746;-4.2290;0.8931;-0.7557;26.1771;
0.839;1.0220;-0.0203;0.1711;-3.9389;0.8092;-0.9771;26.1771;
0.860;1.0254;-0.0208;0.1753;-4.0992;1.0000;-0.7634;26.2712;
0.880;1.0161;-0.0234;0.1772;-4.1756;0.9924;-0.8092;26.1771;
0.900;1.0264;-0.0254;0.1765;-3.8702;1.0076;-0.8702;26.1771;
0.920;1.0154;-0.0237;0.1667;-4.0153;1.0840;-0.7405;26.2712;
0.940;1.0225;-0.0251;0.1758;-4.2824;0.9618;-0.8626;26.1771;
0.960;1.0264;-0.0210;0.1707;-4.1603;0.9847;-0.8397;26.1771;
0.980;1.0229;-0.0139;0.1763;-4.3282;1.0534;-0.7786;26.1771;
1.000;1.0210;-0.0188;0.1804;-4.2290;0.9466;-0.8244;26.2712;
1.020;1.0220;-0.0203;0.1724;-4.1679;1.2137;-0.9466;26.2712;
1.040;1.0256;-0.0183;0.1714;-4.1450;0.9466;-0.9389;26.3653;
1.060;1.0193;-0.0278;0.1753;-4.4046;1.0534;-0.7176;26.1771;
1.080;1.0129;-0.0208;0.1702;-4.2824;0.9313;-1.0687;26.2712;
1.100;1.0205;-0.0166;0.1792;-4.1985;0.9160;-0.8244;26.2712;
1.120;1.0107;-0.0156;0.1726;-4.3282;1.0000;-0.8321;26.1771;
1.140;1.0217;-0.0117;0.1841;-4.2748;0.9924;-0.8931;26.1771;
1.159;1.0203;-0.0208;0.1694;-4.3206;0.9389;-0.8473;26.1771;
1.180;1.0225;-0.0193;0.1738;-4.3053;0.9084;-1.0076;26.2712;
1.200;1.0186;-0.0229;0.1724;-4.2137;1.0840;-0.7710;26.2712;
1.220;1.0203;-0.0188;0.1743;-4.1985;1.1450;-1.0000;26.1771;
1.240;1.0159;-0.0200;0.1726;-4.3435;0.8931;-0.7328;26.2712;
1.260;1.0151;-0.0205;0.1736;-4.3282;1.0229;-0.7710;26.2712;
1.280;1.0215;-0.0234;0.1763;-4.1908;0.9618;-0.8168;26.2712;
1.300;1.0178;-0.0234;0.1714;-4.1832;0.9847;-0.9160;26.2712;
1.320;1.0239;-0.0176;0.1660;-4.2595;1.1908;-1.0611;26.1771;
1.340;1.0186;-0.0210;0.1731;-4.2595;1.0153;-0.6565;26.1771;
1.359;1.0205;-0.0144;0.1694;-4.1679;1.0763;-0.7786;26.2712;
1.380;1.0227;-0.0249;0.1741;-4.1985;0.9695;-0.8168;26.1771;
1.400;1.0212;-0.0222;0.1733;-4.3511;0.9618;-0.9695;26.1771;
1.420;1.0215;-0.0183;0.1787;-4.1069;1.0916;-0.7710;26.1771;
1.440;1.0181;-0.0188;0.1760;-4.0992;0.9695;-0.9313;26.2712;
1.460;1.0222;-0.0188;0.1790;-4.1145;1.0534;-0.7023;26.2712;
1.480;1.0186;-0.0208;0.1833;-4.2443;1.0992;-0.9160;26.2712;
1.500;1.0183;-0.0198;0.1763;-4.1985;0.9771;-0.7863;26.2712;
1.520;1.0171;-0.0205;0.1719;-4.1985;1.0534;-0.9771;26.2712;
1.540;1.0176;-0.0181;0.1724;-4.2901;1.0382;-0.8321;26.2712;
1.560;1.0237;-0.0232;0.1694;-4.4656;1.1069;-0.8015;26.1771;
1.580;1.0173;-0.0161;0.1794;-4.1527;0.7939;-0.9542;26.1771;
1.600;1.0181;-0.0173;0.1758;-4.0687;0.8702;-0.9771;26.2712;
1.620;1.0193;-0.0181;0.1772;-4.2748;0.8397;-0.9924;26.1771;
1.639;1.0239;-0.0212;0.1714;-4.2214;0.9618;-0.7099;26.2712;
1.660;1.0220;-0.0193;0.1765;-4.1908;0.9008;-0.9237;26.3653;
1.679;1.0205;-0.0232;0.1772;-4.1069;1.0382;-0.8168;26.1771;
1.700;1.0198;-0.0171;0.1819;-4.1069;0.9618;-0.8397;26.2712;
1.720;1.0178;-0.0190;0.1702;-4.3282;0.9160;-0.8626;26.2712;
1.740;1.0225;-0.0215;0.1721;-4.2366;0.9924;-0.8702;26.2712;
1.759;1.0164;-0.0215;0.1829;-4.2595;1.0229;-0.8244;26.1771;
1.780;1.0208;-0.0242;0.1816;-4.1450;1.2214;-0.7786;26.1771;
1.800;1.0176;-0.0125;0.1672;-4.3053;0.8855;-0.8550;26.1771;
1.820;1.0190;-0.0210;0.1763;-4.3893;1.0611;-0.9084;26.1771;
1.840;1.0181;-0.0203;0.1743;-4.2595;1.0000;-0.7328;26.1771;
1.859;1.0183;-0.0208;0.1648;-4.2595;0.9237;-0.7405;26.2712;
1.880;1.0212;-0.0188;0.1799;-4.1679;0.9084;-0.9160;26.1771;
1.900;1.0208;-0.0190;0.1663;-4.2366;1.0458;-1.0000;26.1771;
1.920;1.0134;-0.0205;0.1768;-4.2901;0.9847;-0.8397;26.1771;
1.940;1.0200;-0.0237;0.1633;-4.2290;0.8626;-0.7328;26.2712;
1.960;1.0220;-0.0183;0.1716;-4.1603;0.8550;-0.7405;26.1771;
1.980;1.0154;-0.0225;0.1702;-4.2137;0.7863;-0.9542;26.1771;
2.000;1.0212;-0.0198;0.1694;-4.3206;0.9771;-0.8931;26.2712;
2.020;1.0203;-0.0151;0.1716;-4.1450;0.8473;-0.6107;26.2712;
2.040;1.0212;-0.0222;0.1702;-4.2137;1.0000;-0.9313;26.2712;
2.060;1.0217;-0.0208;0.1697;-4.1603;0.8397;-0.7634;26.2712;
2.080;1.0181;-0.0217;0.1675;-4.1221;0.9847;-0.9008;26.1771;
2.100;1.0220;-0.0244;0.1750;-4.1527;1.0687;-0.8015;26.2712;
2.120;1.0176;-0.0178;0.1733;-4.2901;0.9008;-0.6641;26.1771;
2.140;1.0193;-0.0198;0.1780;-4.1374;0.9008;-0.8397;26.1771;
2.160;1.0208;-0.0176;0.1763;-4.1908;0.9084;-0.7710;26.1771;
2.180;1.0200;-0.0176;0.1697;-4.3435;1.1527;-0.9466;26.2712;
2.200;1.0173;-0.0217;0.1682;-4.1908;0.9389;-0.9695;26.2712;
2.220;1.0210;-0.0188;0.1677;-4.2672;0.9160;-0.7786;26.2712;
2.240;1.0254;-0.0222;0.1753;-4.1832;1.0382;-0.8397;26.1771;
2.260;1.0151;-0.0239;0.1692;-4.1145;0.9618;-0.9160;26.2712;
2.280;1.0198;-0.0154;0.1765;-4.0763;0.9695;-0.8779;26.2712;
2.300;1.0193;-0.0190;0.1750;-4.3969;1.0458;-0.8244;26.2712;
2.320;1.0200;-0.0173;0.1685;-4.2443;1.0382;-0.8550;26.2712;
2.340;1.0195;-0.0220;0.1641;-4.2137;1.0382;-0.8550;26.1771;
2.360;1.0225;-0.0225;0.1787;-4.2443;1.0534;-0.8244;26.1771;
2.380;1.0237;-0.0220;0.1758;-4.0687;0.9237;-0.8321;26.1771;
2.400;1.0205;-0.0212;0.1726;-4.0229;1.0076;-0.9237;26.2712;
2.420;1.0259;-0.0208;0.1729;-4.2519;1.0000;-0.9008;26.1771;
2.440;1.0188;-0.0188;0.1753;-4.3282;0.8626;-0.8015;26.1771;
2.460;1.0198;-0.0173;0.1760;-4.0992;1.0000;-0.9084;26.2712;
2.480;1.0205;-0.0217;0.1775;-4.1908;0.9618;-1.0458;26.2712;
2.500;1.0217;-0.0254;0.1687;-4.2443;0.8015;-0.7939;26.1771;
2.520;1.0215;-0.0195;0.1726;-4.1527;0.9771;-0.8473;26.2712;
2.540;1.0186;-0.0181;0.1760;-4.1679;1.0000;-0.9084;26.1771;
2.560;1.0259;-0.0161;0.1824;-4.3588;1.2290;-0.8168;26.1771;
2.580;1.0212;-0.0208;0.1760;-4.0305;0.9542;-0.9008;26.1771;
2.599;1.0210;-0.0242;0.1721;-4.1832;1.0076;-0.9008;26.2712;
2.620;1.0210;-0.0203;0.1721;-4.1985;0.9924;-0.7481;26.3653;
2.640;1.0195;-0.0181;0.1729;-4.2290;0.9084;-0.8931;26.2712;
2.660;1.0208;-0.0247;0.1772;-4.4198;0.8702;-0.9695;26.2712;
2.680;1.0239;-0.0149;0.1782;-4.2137;0.8779;-0.7939;26.1771;
2.700;1.0215;-0.0154;0.1794;-4.2977;1.1832;-0.9695;26.1771;
2.720;1.0210;-0.0159;0.1780;-4.2595;1.1450;-0.8397;26.1771;
2.740;1.0171;-0.0161;0.1731;-4.2443;0.9771;-0.8397;26.2712;
2.760;1.0181;-0.0229;0.1804;-4.1298;0.8702;-0.8473;26.1771;
2.780;1.0203;-0.0271;0.1707;-4.1908;1.0382;-0.6336;26.2712;
2.800;1.0183;-0.0203;0.1758;-4.3588;0.8168;-1.0000;26.2712;
2.820;1.0186;-0.0232;0.1699;-4.3053;0.9313;-0.8855;26.1771;
2.840;1.0125;-0.0225;0.1836;-4.2748;1.0076;-0.9313;26.1771;
2.860;1.0264;-0.0171;0.1682;-4.2595;0.9160;-0.8092;26.1771;
2.880;1.0193;-0.0125;0.1790;-4.3893;1.0840;-0.8779;26.2712;
2.900;1.0195;-0.0239;0.1707;-4.2214;0.9924;-0.9389;26.2712;
2.920;1.0215;-0.0198;0.1814;-4.1908;0.9542;-0.7863;26.1771;
2.940;1.0183;-0.0193;0.1763;-4.2137;0.9466;-0.8931;26.1771;
2.960;1.0244;-0.0232;0.1750;-4.0382;0.8550;-0.7328;26.2712;
2.980;1.0200;-0.0166;0.1824;-4.1985;0.8931;-0.9542;26.1771;
3.000;1.0266;-0.0220;0.1763;-4.2748;0.9618;-0.8321;26.1771;
3.020;1.0212;-0.0239;0.1721;-4.0992;0.7557;-0.7481;26.1771;
3.040;1.0251;-0.0244;0.1750;-4.1527;0.9847;-0.8855;26.1771;
3.060;1.0212;-0.0159;0.1733;-4.3511;0.9160;-0.7939;26.2712;
3.080;1.0178;-0.0217;0.1760;-4.1603;1.1298;-0.9008;26.1771;
3.100;1.0193;-0.0215;0.1775;-4.0840;0.9847;-0.9466;26.1771;
3.120;1.0186;-0.0208;0.1755;-4.2443;0.9771;-0.8779;26.2712;
3.140;1.0195;-0.0203;0.1621;-4.2595;0.8473;-0.9542;26.1771;
3.160;1.0181;-0.0251;0.1711;-4.3511;0.9847;-0.9008;26.0829;
3.180;1.0259;-0.0227;0.1729;-4.2366;1.0611;-0.8855;26.1771;
3.200;1.0203;-0.0186;0.1731;-4.1756;1.0000;-0.7786;26.3653;
3.219;1.0242;-0.0239;0.1689;-4.0916;0.8779;-0.9695;26.2712;
3.240;1.0205;-0.0176;0.1719;-4.2443;1.0458;-0.7863;26.2712;
3.260;1.0142;-0.0220;0.1736;-4.3130;0.9771;-0.8855;26.2712;
3.280;1.0193;-0.0210;0.1792;-4.2214;0.9084;-0.9618;26.2712;
3.300;1.0193;-0.0278;0.1697;-4.3130;1.0076;-0.8550;26.1771;
3.319;1.0203;-0.0225;0.1787;-4.1527;0.7863;-0.9084;26.2712;
3.340;1.0195;-0.0190;0.1677;-4.2443;0.8855;-0.7939;26.2712;
3.360;1.0205;-0.0198;0.1721;-4.2901;1.0000;-0.9618;26.1771;
3.380;1.0156;-0.0203;0.1719;-4.2595;1.0000;-0.7939;26.1771;
3.400;1.0164;-0.0208;0.1729;-4.1756;0.9084;-0.9695;26.1771;
3.420;1.0205;-0.0161;0.1702;-4.2824;0.9542;-0.9542;26.2712;
3.440;1.0181;-0.0261;0.1763;-4.2901;1.0229;-0.9008;26.2712;
3.460;1.0146;-0.0195;0.1704;-4.0763;0.8855;-0.8015;26.1771;
3.480;1.0205;-0.0173;0.1768;-4.2443;0.8321;-0.7099;26.1771;
3.500;1.0200;-0.0159;0.1814;-4.2443;0.8931;-0.8931;26.1771;
3.520;1.0195;-0.0225;0.1760;-4.1450;1.0076;-0.8550;26.2712;
3.540;1.0168;-0.0208;0.1626;-4.3740;1.0153;-1.0076;26.2712;
3.560;1.0261;-0.0190;0.1685;-4.3511;0.9084;-0.7099;26.2712;
3.580;1.0181;-0.0183;0.1753;-4.1832;1.0076;-0.9160;26.2712;
3.599;1.0176;-0.0229;0.1721;-4.0992;1.2290;-0.8321;26.2712;
3.620;1.0193;-0.0220;0.1772;-4.2061;1.0763;-0.9389;26.2712;
3.640;1.0193;-0.0200;0.1780;-4.2290;1.0458;-0.8397;26.2712;
3.660;1.0205;-0.0176;0.1716;-4.2595;1.0000;-0.9389;26.0829;
3.680;1.0142;-0.0227;0.1775;-4.1069;0.9313;-0.7099;26.2712;
3.700;1.0159;-0.0193;0.1670;-4.1374;1.0458;-0.8244;26.1771;
3.720;1.0251;-0.0220;0.1787;-4.0916;0.9237;-0.8244;26.2712;
3.740;1.0164;-0.0139;0.1765;-4.2748;0.8855;-0.7863;26.1771;
3.760;1.0217;-0.0208;0.1631;-4.2137;0.9542;-0.9084;26.1771;
3.780;1.0237;-0.0242;0.1687;-4.2443;0.9771;-0.7863;26.1771;
3.800;1.0198;-0.0193;0.1670;-4.2748;1.0458;-0.8550;26.1771;
3.820;1.0164;-0.0273;0.1702;-4.1450;0.9466;-1.0305;26.2712;
3.840;1.0222;-0.0220;0.1721;-4.1908;0.9466;-0.9160;26.1771;
3.860;1.0176;-0.0208;0.1641;-4.3359;0.9618;-0.7252;26.2712;
3.880;1.0205;-0.0232;0.1770;-4.2061;1.0076;-0.8321;26.1771;
3.900;1.0227;-0.0203;0.1743;-4.3053;0.8702;-0.8702;26.2712;
3.920;1.0171;-0.0107;0.1765;-4.2366;0.9924;-0.7328;26.2712;
3.940;1.0222;-0.0249;0.1738;-4.3130;0.8779;-0.7939;26.1771;
3.960;1.0173;-0.0181;0.1746;-4.1298;0.9847;-0.8397;26.2712;
3.980;1.0225;-0.0239;0.1694;-4.2366;1.0382;-0.8244;26.3653;
4.000;1.0156;-0.0208;0.1748;-4.2290;0.9237;-0.9008;26.1771;
4.020;1.0232;-0.0237;0.1755;-4.2290;1.0153;-0.7863;26.1771;
4.040;1.0186;-0.0244;0.1780;-4.2672;0.9542;-0.7786;26.1771;
4.060;1.0205;-0.0247;0.1746;-4.1908;0.9924;-0.8550;26.2712;
4.080;1.0215;-0.0256;0.1611;-4.2061;0.9389;-0.8779;26.2712;
4.100;1.0183;-0.0195;0.1746;-4.2595;0.9008;-0.9313;26.2712;
4.120;1.0225;-0.0134;0.1763;-4.0916;0.8244;-0.8855;26.2712;
4.140;1.0208;-0.0166;0.1711;-4.2595;1.0992;-0.9618;26.2712;
4.160;1.0181;-0.0188;0.1741;-4.2366;1.0611;-0.6870;26.1771;
4.180;1.0237;-0.0193;0.1748;-4.2748;1.0687;-0.8702;26.1771;
4.200;1.0227;-0.0186;0.1804;-4.1527;0.9008;-0.8779;26.2712;
4.220;1.0212;-0.0203;0.1775;-4.2901;0.9542;-0.9847;26.2712;
4.240;1.0198;-0.0200;0.1709;-4.2748;0.8168;-0.8092;26.1771;
4.260;1.0222;-0.0193;0.1841;-4.1908;1.0229;-0.7786;26.2712;
4.280;1.0239;-0.0264;0.1704;-4.1374;0.9008;-0.8321;26.1771;
4.300;1.0215;-0.0181;0.1733;-4.0916;0.9542;-0.8550;26.2712;
4.320;1.0171;-0.0242;0.1670;-4.1756;0.8702;-0.8702;26.1771;
4.340;1.0254;-0.0244;0.1787;-4.2366;0.9847;-0.8321;26.1771;
4.360;1.0254;-0.0195;0.1846;-4.3359;0.8626;-0.9313;26.1771;
4.380;1.0171;-0.0256;0.1802;-4.0992;1.0763;-0.7557;26.2712;
4.400;1.0225;-0.0193;0.1721;-4.0458;1.0916;-0.9847;26.1771;
4.420;1.0178;-0.0146;0.1726;-4.2977;0.8244;-0.7634;26.2712;
4.439;1.0198;-0.0166;0.1721;-4.1069;0.9237;-0.8397;26.1771;
4.459;1.0237;-0.0234;0.1663;-4.1756;1.1985;-0.6794;26.2712;
4.480;1.0161;-0.0276;0.1770;-4.0916;0.8473;-0.8321;26.3653;
4.500;1.0229;-0.0195;0.1704;-4.4656;0.9771;-1.0076;26.2712;
4.520;1.0164;-0.0234;0.1770;-4.3664;0.9466;-0.5496;26.1771;
4.540;1.0188;-0.0217;0.1750;-4.3359;0.8779;-0.9695;26.1771;
4.560;1.0234;-0.0127;0.1709;-4.3511;0.9695;-0.7710;26.1771;
4.580;1.0242;-0.0161;0.1672;-3.9771;0.8626;-0.8702;26.1771;
4.600;1.0193;-0.0249;0.1702;-4.0611;0.9160;-0.7939;26.2712;
4.620;1.0173;-0.0225;0.1782;-4.2824;0.9695;-0.8168;26.2712;
4.639;1.0198;-0.0205;0.1770;-4.1450;1.0382;-0.9313;26.1771;
4.659;1.0234;-0.0178;0.1758;-4.3588;1.0229;-0.7557;26.2712;
4.680;1.0222;-0.0222;0.1836;-4.2824;1.0763;-0.9466;26.2712;
4.700;1.0239;-0.0247;0.1721;-4.1985;1.0611;-0.7634;26.1771;
4.720;1.0251;-0.0188;0.1853;-4.0687;0.9466;-0.9466;26.1771;
4.740;1.0244;-0.0227;0.1677;-4.0763;0.9084;-0.7023;26.1771;
4.760;1.0193;-0.0242;0.1711;-4.1679;0.8702;-0.8550;26.1771;
4.780;1.0173;-0.0215;0.1741;-4.3282;1.1679;-0.9618;26.2712;
4.800;1.0181;-0.0215;0.1753;-4.3511;1.0458;-0.7634;26.2712;
4.820;1.0181;-0.0210;0.1780;-4.2977;0.9008;-0.9313;26.2712;
4.840;1.0195;-0.0171;0.1807;-4.3588;1.0458;-0.7252;26.2712;
4.860;1.0186;-0.0164;0.1687;-4.3206;1.0687;-0.8779;26.1771;
4.880;1.0220;-0.0190;0.1748;-4.1603;0.9008;-0.7405;26.1771;
4.900;1.0129;-0.0210;0.1755;-4.2061;0.9618;-0.7176;26.1771;
4.920;1.0195;-0.0146;0.1707;-4.2443;1.0382;-0.9160;26.1771;
4.940;1.0212;-0.0256;0.1748;-4.1908;0.9924;-0.8779;26.1771;
4.960;1.0210;-0.0208;0.1804;-4.1450;1.0763;-0.8397;26.2712;
4.980;1.0151;-0.0251;0.1760;-4.1298;0.9924;-0.8550;26.1771;
5.000;1.0225;-0.0215;0.1714;-4.3282;0.9313;-0.7786;26.2712;
5.020;1.0181;-0.0217;0.1787;-4.1527;1.0153;-0.8473;26.1771;
5.040;1.0229;-0.0188;0.1782;-4.3893;1.1069;-0.7481;26.2712;
5.060;1.0134;-0.0193;0.1755;-4.1450;0.8855;-0.8321;26.1771;
5.079;1.0266;-0.0210;0.1675;-4.1756;1.0458;-0.7405;26.1771;
5.100;1.0176;-0.0215;0.1748;-4.1527;0.9237;-1.0153;26.2712;
5.120;1.0227;-0.0186;0.1782;-4.1145;0.9771;-0.8397;26.1771;
5.140;1.0154;-0.0239;0.1714;-4.2519;1.0000;-0.7634;26.2712;
5.159;1.0186;-0.0239;0.1753;-4.1908;0.9542;-0.8702;26.1771;
5.180;1.0229;-0.0198;0.1799;-4.2061;0.8855;-0.7863;26.1771;
5.200;1.0188;-0.0261;0.1790;-4.0611;1.0534;-0.8321;26.1771;
5.220;1.0220;-0.0200;0.1780;-4.2977;0.9542;-0.8244;26.1771;
5.240;1.0181;-0.0200;0.1729;-4.2061;1.1450;-0.8702;26.1771;
5.260;1.0200;-0.0256;0.1716;-4.1832;1.0229;-0.8397;26.2712;
5.280;1.0203;-0.0269;0.1692;-4.1908;0.9771;-0.7939;26.2712;
5.300;1.0198;-0.0203;0.1765;-4.2824;0.8321;-0.8168;26.1771;
5.320;1.0176;-0.0181;0.1785;-4.2595;0.8015;-1.0076;26.2712;
5.340;1.0220;-0.0183;0.1741;-4.1679;1.0305;-0.9237;26.1771;
5.360;1.0188;-0.0161;0.1780;-4.3359;1.0382;-0.8321;26.3653;
5.380;1.0188;-0.0229;0.1682;-4.3130;0.9389;-0.9466;26.2712;
5.400;1.0198;-0.0249;0.1777;-4.2595;0.9847;-0.7176;26.1771;
5.420;1.0227;-0.0159;0.1768;-4.3511;1.0687;-0.9084;26.1771;
5.440;1.0159;-0.0112;0.1768;-4.1985;0.9924;-0.9237;26.1771;
5.460;1.0190;-0.0249;0.1807;-4.1832;1.0534;-0.8168;26.2712;
5.480;1.0156;-0.0190;0.1697;-4.1985;1.1450;-0.8244;26.2712;
5.500;1.0178;-0.0215;0.1711;-4.2137;1.0382;-0.7939;26.2712;
5.520;1.0212;-0.0210;0.1738;-4.2214;0.8779;-0.8244;26.1771;
5.540;1.0171;-0.0215;0.1692;-4.1985;1.0305;-0.7634;26.1771;
5.560;1.0242;-0.0186;0.1765;-4.2672;1.0305;-0.6947;26.2712;
5.580;1.0212;-0.0215;0.1755;-4.2901;1.0534;-0.9695;26.1771;
5.600;1.0188;-0.0215;0.1768;-4.3130;1.0916;-0.9237;26.1771;
5.619;1.0186;-0.0264;0.1758;-4.1985;0.8550;-0.8397;26.1771;
5.639;1.0198;-0.0229;0.1763;-4.1756;1.0229;-0.8015;26.2712;
5.660;1.0208;-0.0198;0.1707;-4.2137;0.9313;-0.7328;26.2712;
5.680;1.0229;-0.0181;0.1750;-4.3359;1.0840;-0.8931;26.1771;
5.700;1.0176;-0.0173;0.1777;-4.0305;0.9084;-0.7252;26.1771;
5.720;1.0181;-0.0193;0.1694;-4.2977;0.9160;-0.8168;26.2712;
5.740;1.0198;-0.0251;0.1802;-4.2824;0.9084;-0.9008;26.1771;
5.760;1.0198;-0.0190;0.1821;-4.0840;1.0763;-0.7710;26.2712;
5.780;1.0178;-0.0217;0.1768;-4.2901;1.0458;-0.9084;26.1771;
5.800;1.0190;-0.0208;0.1768;-4.1145;0.9160;-0.7863;26.1771;
5.820;1.0190;-0.0227;0.1665;-4.0305;1.0916;-0.9542;26.1771;
5.840;1.0215;-0.0195;0.1704;-4.1527;1.0076;-0.8473;26.1771;
5.860;1.0212;-0.0212;0.1677;-4.3664;0.8626;-0.8702;26.1771;
5.880;1.0134;-0.0220;0.1704;-4.0992;0.8702;-1.0305;26.1771;
5.900;1.0220;-0.0298;0.1726;-4.3206;0.9771;-0.9618;26.1771;
5.920;1.0203;-0.0205;0.1782;-4.2137;0.9237;-0.7863;26.2712;
5.940;1.0203;-0.0198;0.1775;-4.2901;0.9771;-0.8244;26.1771;
5.960;1.0200;-0.0261;0.1748;-4.3511;0.8702;-0.6947;26.1771;
5.980;1.0200;-0.0200;0.1719;-4.1145;0.9847;-0.6870;26.1771;
6.000;1.0251;-0.0198;0.1755;-4.1679;0.9847;-1.0534;26.1771;
6.020;1.0227;-0.0156;0.1743;-4.2595;1.1603;-0.9008;26.2712;
6.040;1.0193;-0.0149;0.1660;-4.4351;0.9466;-0.9389;26.2712;
6.060;1.0188;-0.0215;0.1658;-4.2061;1.0458;-0.9237;26.0829;
6.080;1.0190;-0.0203;0.1748;-4.2748;0.8168;-0.9847;26.2712;
6.100;1.0166;-0.0259;0.1770;-4.2595;0.9084;-0.9160;26.2712;
6.120;1.0156;-0.0198;0.1775;-4.2290;1.0305;-0.9084;26.1771;
6.140;1.0205;-0.0269;0.1841;-4.3053;0.9313;-0.8550;26.1771;
6.160;1.0254;-0.0217;0.1636;-4.1221;1.0382;-0.6947;26.2712;
6.180;1.0142;-0.0281;0.1694;-4.1679;1.2137;-0.8168;26.1771;
6.200;1.0208;-0.0254;0.1726;-4.0611;0.7786;-0.7557;26.1771;
6.220;1.0173;-0.0195;0.1782;-4.1221;0.8550;-0.7710;26.2712;
6.240;1.0227;-0.0225;0.1812;-4.3740;0.9847;-0.8397;26.0829;
6.260;1.0217;-0.0151;0.1714;-4.1603;1.0382;-0.9237;26.1771;
6.280;1.0276;-0.0225;0.1775;-4.2824;0.8092;-0.9695;26.1771;
6.300;1.0181;-0.0166;0.1772;-4.1756;0.9847;-0.8550;26.1771;
6.320;1.0154;-0.0188;0.1685;-4.2290;0.8702;-0.9313;26.1771;
6.340;1.0186;-0.0193;0.1721;-4.1985;0.8397;-0.8626;26.2712;
6.360;1.0217;-0.0193;0.1770;-4.2290;1.0687;-0.9237;26.1771;
6.380;1.0198;-0.0132;0.1667;-4.1756;1.1450;-1.0840;26.1771;
6.400;1.0239;-0.0217;0.1814;-4.2443;1.0076;-0.8702;26.1771;
6.420;1.0215;-0.0188;0.1721;-4.2824;1.0076;-0.7405;26.1771;
6.440;1.0159;-0.0215;0.1780;-4.0992;0.8321;-0.9542;26.2712;
6.460;1.0164;-0.0232;0.1665;-4.1450;0.9695;-0.8702;26.2712;
6.480;1.0220;-0.0161;0.1770;-4.3130;0.9847;-0.9389;26.1771;
6.500;1.0198;-0.0195;0.1768;-4.2519;1.1069;-0.8397;26.2712;
6.519;1.0225;-0.0208;0.1743;-4.2366;0.9160;-0.8855;26.2712;
6.540;1.0232;-0.0210;0.1746;-4.3206;1.0840;-0.9466;26.2712;
6.560;1.0215;-0.0168;0.1782;-4.0611;0.9618;-0.7481;26.1771;
6.580;1.0129;-0.0232;0.1743;-4.3206;0.9542;-0.8244;26.2712;
6.600;1.0198;-0.0212;0.1685;-4.2290;1.0382;-0.7939;26.2712;
6.619;1.0203;-0.0176;0.1794;-4.2672;0.9924;-0.8397;26.1771;
6.640;1.0229;-0.0198;0.1750;-4.3053;0.9389;-0.8702;26.2712;
6.660;1.0234;-0.0212;0.1770;-4.2290;0.9924;-0.7786;26.2712;
6.680;1.0195;-0.0188;0.1787;-4.2519;1.0153;-0.8244;26.2712;
6.700;1.0237;-0.0149;0.1714;-4.2824;1.0076;-0.9237;26.2712;
6.720;1.0225;-0.0200;0.1716;-4.2366;1.0000;-0.9542;26.1771;
6.740;1.0146;-0.0237;0.1704;-4.1527;0.9389;-0.8168;26.2712;
6.760;1.0212;-0.0266;0.1724;-4.1756;1.0687;-0.8321;26.1771;
6.780;1.0176;-0.0215;0.1733;-4.2824;1.0916;-0.9237;26.2712;
6.800;1.0195;-0.0164;0.1755;-4.0916;0.7634;-1.0076;26.1771;
6.820;1.0156;-0.0178;0.1768;-4.1069;0.7634;-0.9542;26.2712;
6.840;1.0220;-0.0203;0.1787;-4.4198;0.9924;-0.8779;26.2712;
6.860;1.0198;-0.0210;0.1770;-4.1527;1.0916;-0.8244;26.2712;
6.880;1.0181;-0.0186;0.1768;-4.1679;0.9313;-0.8244;26.0829;
6.900;1.0251;-0.0225;0.1704;-4.2061;0.9618;-0.9008;26.1771;
6.920;1.0269;-0.0190;0.1699;-4.3130;0.9084;-0.8702;26.2712;
6.940;1.0198;-0.0203;0.1765;-4.0916;0.8092;-0.7557;26.1771;
6.960;1.0198;-0.0200;0.1868;-4.1450;0.8702;-0.9618;26.1771;
6.980;1.0173;-0.0244;0.1804;-4.3206;0.9695;-0.7634;26.2712;
7.000;1.0227;-0.0178;0.1748;-4.3588;0.9389;-0.8473;26.1771;
7.020;1.0195;-0.0220;0.1707;-4.2824;1.1069;-1.0153;26.2712;
7.040;1.0220;-0.0198;0.1775;-4.1374;0.9847;-0.8168;26.0829;
7.060;1.0205;-0.0190;0.1787;-4.0763;0.9847;-0.7176;26.2712;
7.080;1.0217;-0.0217;0.1746;-4.3053;1.0382;-0.8015;26.1771;
7.099;1.0208;-0.0251;0.1724;-4.2519;0.9695;-0.9084;26.1771;
7.119;1.0190;-0.0168;0.1763;-4.1145;1.0229;-0.7252;26.1771;
7.140;1.0212;-0.0273;0.1841;-4.1756;0.9924;-0.7557;26.2712;
7.160;1.0164;-0.0188;0.1702;-4.2443;0.9924;-0.9847;26.1771;
7.180;1.0173;-0.0256;0.1765;-4.2061;0.8931;-0.7710;26.1771;
7.200;1.0178;-0.0222;0.1689;-4.3511;0.9008;-0.7481;26.2712;
7.219;1.0229;-0.0190;0.1760;-4.3130;0.9084;-0.7405;26.1771;
7.239;1.0139;-0.0229;0.1709;-4.2443;0.9160;-0.9160;26.1771;
7.260;1.0225;-0.0217;0.1819;-4.2519;1.0000;-0.7939;26.1771;
7.280;1.0132;-0.0237;0.1765;-4.1679;0.9542;-0.8092;26.1771;
7.300;1.0229;-0.0261;0.1689;-4.2595;0.9389;-0.7786;26.2712;
7.320;1.0127;-0.0186;0.1816;-4.1145;0.9084;-0.8473;26.2712;
7.340;1.0208;-0.0220;0.1736;-4.3969;0.8779;-0.7481;26.0829;
7.360;1.0178;-0.0239;0.1697;-4.3740;0.9313;-0.8244;26.2712;
7.380;1.0217;-0.0181;0.1675;-4.1450;0.9160;-0.9008;26.1771;
7.400;1.0154;-0.0269;0.1758;-4.2977;0.8473;-0.7710;26.1771;
7.420;1.0227;-0.0208;0.1709;-4.2824;0.9695;-0.7099;26.1771;
7.439;1.0215;-0.0208;0.1733;-4.1908;0.8321;-0.7939;26.1771;
7.460;1.0205;-0.0193;0.1770;-4.3206;1.2290;-0.8473;26.2712;
7.480;1.0229;-0.0215;0.1685;-4.2214;1.0076;-0.7634;26.1771;
7.500;1.0208;-0.0161;0.1743;-4.1832;0.9237;-0.8397;26.1771;
7.519;1.0244;-0.0249;0.1704;-4.3893;0.9160;-0.7786;26.1771;
7.540;1.0247;-0.0220;0.1792;-4.0992;0.9466;-0.8931;26.2712;
7.560;1.0173;-0.0203;0.1633;-4.2214;1.1145;-0.8321;26.1771;
7.580;1.0208;-0.0208;0.1655;-4.4046;0.9466;-0.8092;26.1771;
7.600;1.0186;-0.0193;0.1753;-4.3359;1.0229;-0.7634;26.2712;
7.620;1.0217;-0.0203;0.1694;-4.1221;0.9160;-0.9389;26.1771;
7.639;1.0234;-0.0181;0.1743;-4.1221;0.9466;-0.8321;26.1771;
7.660;1.0198;-0.0193;0.1736;-4.3359;1.0916;-0.6947;26.1771;
7.680;1.0193;-0.0183;0.1838;-4.1985;0.8702;-0.8015;26.1771;
7.700;1.0249;-0.0229;0.1702;-4.1145;1.0992;-0.8779;26.2712;
7.719;1.0203;-0.0215;0.1807;-4.3282;0.8779;-0.7557;26.1771;
7.739;1.0212;-0.0254;0.1726;-4.1298;1.0534;-0.7481;26.1771;
7.760;1.0190;-0.0234;0.1707;-4.0153;0.7786;-0.8626;26.0829;
7.780;1.0208;-0.0193;0.1743;-4.3130;0.9466;-0.8092;26.1771;
7.800;1.0154;-0.0212;0.1731;-4.1145;0.9771;-0.8473;26.1771;
7.820;1.0168;-0.0215;0.1729;-4.2137;1.0687;-0.8626;26.1771;
7.840;1.0203;-0.0251;0.1760;-4.2366;0.9389;-0.7023;26.1771;
7.859;1.0188;-0.0200;0.1726;-4.4809;0.9847;-0.7557;26.2712;
7.880;1.0164;-0.0256;0.1707;-4.2061;0.9618;-0.7939;26.2712;
7.900;1.0198;-0.0208;0.1702;-4.1832;1.0000;-0.8397;26.2712;
7.920;1.0181;-0.0261;0.1804;-4.4580;0.7328;-0.8626;26.1771;
7.940;1.0166;-0.0195;0.1704;-4.1374;0.8855;-0.8855;26.1771;
7.959;1.0186;-0.0181;0.1782;-4.2672;0.9084;-0.7557;26.1771;
7.980;1.0156;-0.0222;0.1660;-4.2748;1.0534;-0.6641;26.1771;
8.000;1.0198;-0.0186;0.1770;-4.0992;0.9313;-0.7634;26.1771;
8.019;1.0215;-0.0203;0.1770;-4.2595;0.9695;-0.7328;26.2712;
8.040;1.0222;-0.0193;0.1667;-4.3817;0.9237;-0.8702;26.1771;
8.060;1.0217;-0.0198;0.1667;-4.1145;1.1679;-0.7939;26.1771;
8.080;1.0164;-0.0205;0.1697;-4.1450;0.9466;-0.8473;26.1771;
8.100;1.0171;-0.0222;0.1785;-4.2519;1.0687;-0.9695;26.1771;
8.120;1.0215;-0.0203;0.1765;-4.2672;0.9695;-0.8779;26.2712;
8.140;1.0166;-0.0217;0.1748;-4.1985;0.9237;-0.8626;26.0829;
8.159;1.0234;-0.0259;0.1716;-4.1679;0.9237;-0.8168;26.1771;
8.180;1.0171;-0.0176;0.1794;-4.2214;0.9542;-0.9313;26.1771;
8.200;1.0254;-0.0195;0.1826;-4.0763;1.0153;-0.7099;26.1771;
8.220;1.0203;-0.0229;0.1799;-4.4122;0.9008;-0.8626;26.1771;
8.240;1.0210;-0.0256;0.1731;-4.1450;0.8473;-0.6870;26.1771;
8.260;1.0178;-0.0249;0.1797;-4.2061;0.8702;-0.8015;26.2712;
8.279;1.0208;-0.0166;0.1729;-4.2443;0.8168;-0.8092;26.1771;
8.300;1.0198;-0.0239;0.1763;-4.2290;1.0840;-0.9618;26.2712;
8.320;1.0176;-0.0205;0.1750;-4.3206;0.9237;-0.8779;26.1771;
8.340;1.0193;-0.0215;0.1675;-4.1756;0.8626;-0.8855;26.0829;
8.359;1.0212;-0.0168;0.1741;-4.2748;0.8626;-0.8321;26.1771;
8.380;1.0190;-0.0183;0.1672;-4.2137;0.8855;-0.7252;26.2712;
8.400;1.0225;-0.0220;0.1765;-4.1985;1.0000;-0.8626;26.1771;
8.420;1.0210;-0.0188;0.1775;-4.2214;0.9695;-0.8092;26.1771;
8.440;1.0229;-0.0227;0.1711;-4.1832;0.9160;-0.7481;26.1771;
8.459;1.0222;-0.0203;0.1689;-4.2901;0.9542;-0.9160;26.1771;
8.480;1.0212;-0.0208;0.1812;-4.0534;1.0305;-0.6794;26.1771;
8.500;1.0166;-0.0242;0.1758;-4.1069;1.0153;-0.8779;26.1771;
8.520;1.0227;-0.0232;0.1687;-4.3282;1.0000;-0.9237;26.1771;
8.540;1.0205;-0.0215;0.1694;-4.3435;1.0687;-0.9237;26.0829;
8.560;1.0222;-0.0176;0.1709;-4.1450;0.9695;-0.8855;26.2712;
8.579;1.0188;-0.0195;0.1646;-4.3206;1.0153;-0.8244;26.1771;
8.600;1.0159;-0.0205;0.1711;-4.1832;1.0992;-1.1298;26.0829;
8.619;1.0203;-0.0217;0.1704;-4.2443;0.9008;-0.8092;26.1771;
8.640;1.0212;-0.0249;0.1746;-4.1985;0.9160;-0.9160;26.1771;
8.660;1.0249;-0.0168;0.1726;-4.3435;0.9008;-0.8244;26.1771;
8.679;1.0234;-0.0203;0.1704;-4.1450;1.0992;-0.9313;26.1771;
8.700;1.0212;-0.0229;0.1772;-4.3817;0.9618;-0.7710;26.1771;
8.720;1.0222;-0.0198;0.1755;-4.2901;0.8931;-0.8550;26.1771;
8.739;1.0139;-0.0256;0.1660;-4.2214;0.8702;-0.8321;26.2712;
8.760;1.0232;-0.0142;0.1790;-4.3511;0.8473;-0.9542;26.2712;
8.780;1.0208;-0.0198;0.1709;-4.2214;0.9924;-0.9313;26.2712;
8.800;1.0105;-0.0186;0.1785;-4.2443;0.9084;-0.8168;26.1771;
8.820;1.0225;-0.0171;0.1736;-4.1679;0.8473;-0.8626;26.1771;
8.840;1.0166;-0.0181;0.1804;-4.2748;1.0229;-0.7710;26.2712;
8.860;1.0205;-0.0195;0.1675;-4.2443;0.8321;-1.0000;26.1771;
8.879;1.0156;-0.0181;0.1829;-3.9695;0.9389;-0.6870;26.1771;
8.900;1.0203;-0.0193;0.1821;-4.3053;0.8092;-0.6565;26.1771;
8.920;1.0186;-0.0208;0.1741;-3.9847;0.8931;-0.9084;26.1771;
8.939;1.0186;-0.0227;0.1702;-4.2214;1.0229;-0.8550;26.2712;
8.960;1.0164;-0.0261;0.1812;-4.2824;0.9924;-0.8779;26.2712;
8.979;1.0188;-0.0173;0.1711;-4.2443;0.8321;-0.7481;26.1771;
9.000;1.0203;-0.0166;0.1741;-4.0687;0.9389;-0.8244;26.1771;
9.020;1.0173;-0.0239;0.1763;-4.3435;0.9313;-0.8779;26.1771;
9.039;1.0217;-0.0171;0.1748;-4.3435;1.0534;-0.6718;26.1771;
9.060;1.0217;-0.0234;0.1746;-4.1298;0.9847;-0.7557;26.1771;
9.079;1.0208;-0.0188;0.1729;-4.2672;1.1221;-0.6641;26.1771;
9.100;1.0259;-0.0278;0.1770;-4.1527;1.0763;-0.8168;26.1771;
9.120;1.0237;-0.0210;0.1794;-4.1603;1.1145;-0.8473;26.1771;
9.140;1.0190;-0.0203;0.1670;-4.0611;1.1145;-0.9695;26.1771;
9.159;1.0188;-0.0188;0.1787;-4.1374;0.9466;-0.9313;26.0829;
9.180;1.0217;-0.0190;0.1785;-4.2748;1.1145;-0.9924;26.1771;
9.200;1.0151;-0.0151;0.1833;-4.0611;0.8702;-0.8779;26.1771;
9.220;1.0269;-0.0186;0.1719;-4.3511;0.9313;-0.6641;26.1771;
9.240;1.0215;-0.0198;0.1724;-4.2061;1.1145;-0.9466;26.2712;
9.260;1.0220;-0.0215;0.1868;-4.1832;0.8702;-0.8702;26.1771;
9.280;1.0188;-0.0237;0.1787;-4.3511;1.1298;-0.9008;26.2712;
9.299;1.0217;-0.0232;0.1777;-4.1221;0.9313;-0.8626;26.1771;
9.320;1.0293;-0.0171;0.1648;-4.1679;1.0687;-0.8473;26.1771;
9.340;1.0195;-0.0195;0.1736;-4.2290;0.9847;-0.8473;26.0829;
9.360;1.0146;-0.0232;0.1716;-4.0611;0.9618;-0.8321;26.1771;
9.379;1.0208;-0.0225;0.1707;-4.3435;0.9618;-0.7252;26.1771;
9.399;1.0183;-0.0203;0.1736;-4.3359;1.0382;-0.8397;26.1771;
9.420;1.0210;-0.0229;0.1738;-4.3359;0.8397;-0.9618;26.0829;
9.440;1.0225;-0.0200;0.1790;-4.0840;1.0305;-0.7328;26.1771;
9.460;1.0203;-0.0269;0.1748;-4.2214;1.1069;-0.9008;26.2712;
9.480;1.0178;-0.0222;0.1704;-4.2061;0.9389;-0.8626;26.1771;
9.499;1.0173;-0.0129;0.1682;-4.0076;1.0687;-0.9466;26.1771;
9.520;1.0225;-0.0200;0.1724;-4.2519;1.0153;-0.9008;26.1771;
9.540;1.0181;-0.0239;0.1746;-4.1908;0.8550;-0.8015;26.1771;
9.560;1.0217;-0.0186;0.1716;-4.1832;0.9695;-0.7481;26.1771;
9.579;1.0195;-0.0198;0.1826;-4.1985;0.8244;-0.9084;26.2712;
9.600;1.0173;-0.0261;0.1750;-4.3053;0.9771;-0.9389;26.0829;
9.620;1.0193;-0.0188;0.1821;-4.3511;0.9542;-0.7939;26.1771;
9.640;1.0200;-0.0227;0.1802;-4.2366;0.9847;-0.9466;26.1771;
9.659;1.0247;-0.0256;0.1782;-4.2061;0.7557;-0.7405;26.0829;
9.679;1.0164;-0.0239;0.1760;-4.1985;0.8626;-0.9237;26.1771;
9.699;1.0208;-0.0154;0.1731;-4.3511;1.0534;-0.9008;26.2712;
9.720;1.0188;-0.0173;0.1804;-4.2290;1.0687;-0.6641;26.0829;
9.740;1.0183;-0.0227;0.1702;-4.1527;0.9389;-0.8321;26.0829;
9.760;1.0139;-0.0188;0.1689;-4.4275;1.0458;-0.8321;26.1771;
9.780;1.0220;-0.0215;0.1768;-4.2824;1.1450;-0.9542;26.2712;
9.800;1.0212;-0.0159;0.1736;-4.1145;0.7634;-0.7710;26.1771;
9.819;1.0205;-0.0188;0.1775;-4.2824;1.0763;-0.8397;26.1771;
9.840;1.0156;-0.0242;0.1790;-4.2137;1.0229;-0.8015;26.0829;
9.860;1.0251;-0.0132;0.1777;-4.1832;0.8397;-0.8244;26.2712;
9.879;1.0227;-0.0227;0.1785;-4.3053;0.9237;-0.8702;26.1771;
9.900;1.0242;-0.0188;0.1833;-4.2748;1.0305;-0.8779;26.0829;
9.919;1.0190;-0.0198;0.1743;-4.1603;0.9771;-0.8702;26.1771;
9.940;1.0205;-0.0171;0.1794;-4.2290;1.0153;-0.6947;26.1771;
9.960;1.0171;-0.0227;0.1746;-4.3206;0.8015;-0.8015;26.1771;
9.980;1.0166;-0.0178;0.1694;-4.2748;0.8473;-0.9618;26.1771;
10.000;1.0198;-0.0222;0.1692;-4.2061;1.0687;-0.8321;26.0829;
10.019;1.0222;-0.0249;0.1794;-4.1374;1.1298;-0.8092;26.0829;
10.040;1.0234;-0.0220;0.1748;-4.3511;1.1985;-0.8244;26.1771;
10.060;1.0181;-0.0190;0.1799;-4.3511;0.9237;-0.8931;26.1771;
10.080;1.0195;-0.0178;0.1689;-4.2519;0.9008;-0.6412;26.0829;
10.100;1.0200;-0.0212;0.1750;-4.2519;1.0076;-0.9008;26.1771;
10.119;1.0142;-0.0229;0.1807;-4.3359;1.0153;-0.7099;26.0829;
10.140;1.0171;-0.0212;0.1733;-4.2977;0.9237;-0.7786;26.1771;
10.160;1.0220;-0.0242;0.1689;-4.3206;1.0534;-0.8550;26.1771;
10.180;1.0171;-0.0225;0.1772;-4.1145;0.9466;-0.9771;26.1771;
10.200;1.0220;-0.0242;0.1724;-4.3206;0.9313;-0.9160;26.1771;
10.220;1.0149;-0.0198;0.1772;-4.1679;0.8931;-1.0000;26.1771;
10.240;1.0186;-0.0217;0.1777;-4.2290;1.0611;-0.8550;26.0829;
10.260;1.0156;-0.0222;0.1758;-4.2748;0.9237;-0.8473;26.2712;
10.280;1.0217;-0.0208;0.1658;-4.1832;1.1069;-0.9924;26.1771;
10.299;1.0225;-0.0183;0.1729;-4.1908;0.9542;-0.7176;26.1771;
10.319;1.0166;-0.0210;0.1741;-4.1298;0.8931;-0.8931;26.1771;
10.340;1.0205;-0.0259;0.1848;-4.1832;1.0076;-0.9542;26.1771;
10.360;1.0215;-0.0205;0.1716;-4.0153;1.0076;-0.7405;26.1771;
10.380;1.0215;-0.0181;0.1792;-4.1908;1.0534;-0.7405;26.0829;
10.400;1.0229;-0.0225;0.1794;-4.1985;0.9466;-0.8779;26.1771;
10.419;1.0173;-0.0173;0.1694;-4.1069;0.9008;-0.9847;26.2712;
10.440;1.0134;-0.0205;0.1765;-4.2595;0.9847;-0.7481;26.2712;
10.460;1.0261;-0.0247;0.1667;-4.4122;0.9466;-0.8092;26.1771;
10.480;1.0217;-0.0161;0.1714;-4.1985;0.9466;-0.8015;26.0829;
10.499;1.0168;-0.0166;0.1763;-4.2901;1.1756;-0.8244;26.1771;
10.519;1.0210;-0.0200;0.1709;-4.4504;0.9313;-0.8702;26.2712;
10.540;1.0220;-0.0222;0.1721;-4.1145;1.0458;-0.9084;26.1771;
10.560;1.0215;-0.0229;0.1621;-4.3282;1.0382;-0.6947;26.1771;
10.580;1.0176;-0.0247;0.1719;-4.2748;0.9924;-0.9160;26.1771;
10.600;1.0210;-0.0269;0.1780;-4.2901;0.9160;-0.7939;26.1771;
10.619;1.0217;-0.0171;0.1748;-4.3130;1.0076;-1.0000;26.0829;
10.639;1.0159;-0.0227;0.1738;-4.2748;0.9924;-0.9084;26.1771;
10.660;1.0176;-0.0227;0.1704;-4.3435;1.0153;-0.8626;26.0829;
10.680;1.0203;-0.0283;0.1765;-3.9924;0.9313;-0.8015;26.1771;
10.699;1.0186;-0.0229;0.1785;-4.4198;0.9847;-0.8015;26.1771;
10.720;1.0183;-0.0239;0.1682;-4.1069;1.0382;-0.8473;26.1771;
10.740;1.0142;-0.0229;0.1716;-4.0992;0.8626;-0.8855;26.2712;
10.760;1.0168;-0.0210;0.1719;-4.3435;0.9924;-0.7710;26.0829;
10.780;1.0212;-0.0190;0.1755;-4.2519;0.9695;-0.9237;26.1771;
10.799;1.0203;-0.0193;0.1782;-4.1756;1.0763;-0.8550;26.1771;
10.819;1.0244;-0.0139;0.1707;-4.2443;0.8015;-0.8626;26.0829;
10.840;1.0205;-0.0208;0.1692;-4.1985;1.0916;-0.7939;26.1771;
10.860;1.0242;-0.0239;0.1741;-4.1221;1.0076;-0.8321;26.1771;
10.880;1.0215;-0.0234;0.1702;-4.2519;1.0534;-1.0076;26.2712;
10.900;1.0149;-0.0256;0.1714;-4.1145;0.8779;-0.8931;26.1771;
10.919;1.0208;-0.0183;0.1670;-4.1527;0.7786;-0.9160;26.0829;
10.940;1.0237;-0.0166;0.1729;-4.2595;1.0305;-0.7557;26.2712;
10.960;1.0142;-0.0254;0.1711;-4.3053;0.8626;-0.7786;26.0829;
10.980;1.0237;-0.0229;0.1753;-4.1450;1.0458;-0.9389;26.2712;
10.999;1.0154;-0.0190;0.1738;-4.2137;0.9542;-0.7328;26.1771;
11.020;1.0251;-0.0264;0.1729;-4.1527;1.0382;-0.9160;26.1771;
11.040;1.0220;-0.0188;0.1675;-4.2443;1.1069;-0.7634;26.2712;
11.059;1.0222;-0.0208;0.1731;-4.2061;1.0229;-0.9618;26.1771;
11.079;1.0193;-0.0200;0.1743;-4.2443;1.0687;-0.8168;26.2712;
11.100;1.0129;-0.0195;0.1790;-4.1679;0.8168;-0.9695;26.0829;
11.119;1.0225;-0.0217;0.1729;-4.3206;0.9542;-0.8855;26.0829;
11.139;1.0254;-0.0242;0.1721;-4.2366;0.9771;-0.8702;26.1771;
11.159;1.0164;-0.0181;0.1760;-4.3053;1.0153;-0.8092;26.0829;
11.180;1.0178;-0.0200;0.1809;-4.2443;1.0992;-0.7634;26.1771;
11.200;1.0198;-0.0176;0.1738;-4.3206;0.7710;-0.9160;26.1771;
11.219;1.0200;-0.0234;0.1741;-4.1603;0.9542;-0.8550;26.0829;
11.239;1.0176;-0.0242;0.1807;-4.1298;0.7252;-1.0382;26.1771;
11.260;1.0225;-0.0193;0.1702;-4.2443;0.9008;-0.7786;26.0829;
11.280;1.0173;-0.0166;0.1743;-4.1603;0.9847;-0.7786;26.0829;
11.300;1.0188;-0.0256;0.1736;-4.1221;1.1221;-0.9160;26.1771;
11.319;1.0139;-0.0168;0.1785;-4.4198;1.1374;-0.9237;26.1771;
11.339;1.0186;-0.0203;0.1792;-4.1527;0.9008;-0.7786;26.0829;
11.360;1.0237;-0.0151;0.1741;-4.1985;0.9008;-0.7939;26.1771;
11.380;1.0159;-0.0220;0.1821;-4.2824;0.8855;-0.9237;26.0829;
11.400;1.0186;-0.0210;0.1721;-4.1450;1.0763;-0.8779;26.1771;
11.420;1.0203;-0.0276;0.1765;-4.1145;1.0382;-0.8931;26.1771;
11.439;1.0222;-0.0249;0.1760;-4.2137;0.9771;-0.8626;26.1771;
11.459;1.0254;-0.0203;0.1841;-4.0992;0.9924;-0.8855;26.0829;
11.480;1.0242;-0.0212;0.1809;-4.1679;1.0916;-0.8321;26.1771;
11.500;1.0212;-0.0227;0.1741;-4.2366;1.0076;-0.8550;26.1771;
11.519;1.0176;-0.0227;0.1716;-4.2519;1.0382;-0.9084;26.0829;
11.539;1.0161;-0.0254;0.1775;-4.2672;1.0534;-0.8779;26.2712;
11.560;1.0217;-0.0159;0.1768;-4.2366;0.9389;-0.9466;26.0829;
11.579;1.0210;-0.0249;0.1707;-4.1603;0.9695;-0.7481;26.1771;
11.600;1.0220;-0.0256;0.1826;-4.3130;0.9084;-0.8244;26.0829;
11.620;1.0217;-0.0195;0.1763;-4.0534;1.0305;-0.7176;26.2712;
11.639;1.0198;-0.0173;0.1716;-4.1298;0.9695;-0.8550;26.1771;
11.660;1.0244;-0.0261;0.1782;-4.2290;1.0076;-0.8168;26.0829;
11.680;1.0166;-0.0181;0.1733;-4.2901;0.9160;-0.7786;26.1771;
11.699;1.0203;-0.0293;0.1763;-4.3282;0.9542;-0.8473;26.1771;
11.719;1.0188;-0.0183;0.1746;-4.2443;0.8244;-0.8855;26.2712;
11.740;1.0210;-0.0166;0.1770;-4.2519;1.0763;-0.8321;26.1771;
11.760;1.0176;-0.0156;0.1746;-4.4427;0.9466;-0.8931;26.1771;
11.779;1.0198;-0.0183;0.1799;-4.3053;1.0000;-0.8702;26.1771;
11.800;1.0198;-0.0222;0.1787;-4.3053;1.0382;-0.8321;26.0829;
11.820;1.0208;-0.0239;0.1750;-4.2290;1.1985;-0.8015;26.2712;
11.839;1.0183;-0.0234;0.1731;-4.1450;1.1145;-0.8702;26.1771;
11.859;1.0242;-0.0195;0.1868;-4.1756;1.0000;-0.7405;26.1771;
11.880;1.0203;-0.0171;0.1716;-4.4275;0.9771;-0.8244;26.0829;
11.900;1.0164;-0.0176;0.1694;-4.1603;0.8626;-0.7863;26.1771;
11.919;1.0266;-0.0176;0.1719;-4.1908;0.9313;-0.9542;26.1771;
11.940;1.0198;-0.0188;0.1816;-4.1679;0.9313;-0.7634;26.1771;
11.960;1.0168;-0.0210;0.1711;-4.2137;1.0076;-0.8626;26.1771;
11.980;1.0251;-0.0149;0.1772;-4.1756;1.0534;-0.7176;26.2712;
12.000;1.0217;-0.0188;0.1763;-4.2748;1.0076;-0.7863;26.0829;
12.019;1.0200;-0.0229;0.1760;-4.2137;1.1374;-0.9160;26.0829;
12.040;1.0212;-0.0200;0.1733;-4.1374;0.9695;-0.8855;26.1771;
12.059;1.0171;-0.0222;0.1714;-4.1527;1.1145;-0.9160;26.1771;
12.079;1.0210;-0.0164;0.1721;-4.3130;1.0305;-0.8244;26.0829;
12.100;1.0173;-0.0200;0.1736;-4.2901;0.9695;-0.8015;26.0829;
12.119;1.0212;-0.0190;0.1782;-4.2290;1.0534;-0.8397;26.0829;
12.140;1.0259;-0.0225;0.1777;-4.2137;1.0076;-0.7557;26.1771;
12.159;1.0173;-0.0227;0.1719;-4.3282;1.0382;-0.7786;26.1771;
12.179;1.0190;-0.0227;0.1782;-4.3282;0.9084;-0.8015;26.1771;
12.200;1.0269;-0.0215;0.1721;-4.3435;0.9771;-0.9008;26.1771;
12.220;1.0222;-0.0198;0.1758;-4.2672;0.9924;-0.7099;26.1771;
12.239;1.0183;-0.0217;0.1797;-4.2290;0.9466;-0.8321;26.0829;
12.260;1.0137;-0.0281;0.1743;-4.3511;0.8473;-0.8168;26.1771;
12.279;1.0239;-0.0110;0.1743;-4.2290;0.9847;-0.8702;26.0829;
12.300;1.0164;-0.0171;0.1719;-4.1908;0.9847;-0.7786;26.1771;
12.320;1.0205;-0.0190;0.1748;-4.3359;1.0305;-0.9466;26.1771;
12.340;1.0208;-0.0166;0.1736;-4.1908;0.9084;-0.9695;26.1771;
12.360;1.0203;-0.0151;0.1853;-4.2977;1.0458;-0.8168;26.1771;
12.380;1.0217;-0.0188;0.1812;-4.4275;1.0382;-0.7786;26.1771;
12.400;1.0227;-0.0190;0.1750;-4.1298;0.8550;-0.9160;26.2712;
12.420;1.0195;-0.0215;0.1753;-4.2214;1.0687;-0.9771;26.1771;
12.440;1.0242;-0.0208;0.1809;-4.2519;0.9160;-0.9771;26.0829;
12.460;1.0229;-0.0205;0.1646;-4.2824;1.0458;-0.7252;26.1771;
12.479;1.0239;-0.0227;0.1729;-4.0305;0.7786;-0.9160;26.0829;
12.499;1.0159;-0.0200;0.1680;-4.2061;0.9924;-0.8244;26.1771;
12.520;1.0178;-0.0271;0.1714;-4.3282;0.9542;-0.7405;26.1771;
12.540;1.0190;-0.0271;0.1770;-4.0000;0.8702;-0.7557;26.2712;
12.560;1.0186;-0.0203;0.1689;-4.3435;1.0000;-0.9237;26.1771;
12.580;1.0186;-0.0220;0.1775;-4.0534;1.0000;-0.8855;26.1771;
12.600;1.0190;-0.0222;0.1765;-4.2519;1.0382;-0.7863;26.0829;
12.619;1.0164;-0.0181;0.1675;-4.2061;1.0916;-0.9008;26.1771;
12.639;1.0132;-0.0181;0.1755;-4.2977;0.9618;-0.8550;26.1771;
12.659;1.0178;-0.0269;0.1829;-4.2824;0.9771;-1.0687;26.1771;
12.679;1.0242;-0.0215;0.1648;-4.1298;1.1450;-0.7176;26.1771;
12.700;1.0183;-0.0203;0.1667;-4.2290;1.1221;-0.8855;26.0829;
12.720;1.0176;-0.0256;0.1711;-4.3740;0.9924;-0.7786;26.1771;
12.740;1.0168;-0.0195;0.1729;-4.2595;0.9389;-0.8473;26.0829;
12.759;1.0237;-0.0215;0.1663;-4.2443;1.0611;-0.6947;26.1771;
12.779;1.0220;-0.0193;0.1733;-4.2061;0.9618;-0.7023;26.1771;
12.800;1.0142;-0.0212;0.1777;-4.0687;1.0305;-0.8702;26.1771;
12.820;1.0225;-0.0208;0.1697;-4.2519;1.0611;-0.9237;26.1771;
12.840;1.0210;-0.0210;0.1736;-4.2290;1.0305;-0.8626;26.2712;
12.860;1.0239;-0.0183;0.1772;-4.1832;0.9313;-0.7099;26.1771;
12.879;1.0225;-0.0217;0.1653;-4.3053;1.0229;-0.8855;26.0829;
12.900;1.0198;-0.0166;0.1833;-4.2824;0.8626;-0.9466;26.1771;
12.920;1.0215;-0.0208;0.1709;-4.2672;1.0305;-0.7252;26.0829;
12.940;1.0210;-0.0188;0.1770;-4.2901;1.1374;-0.6718;26.1771;
12.959;1.0208;-0.0166;0.1672;-4.2977;1.0153;-0.8702;26.1771;
12.979;1.0168;-0.0227;0.1743;-4.1221;0.9008;-0.9695;26.1771;
13.000;1.0261;-0.0188;0.1755;-4.2748;1.1527;-0.7176;26.1771;
13.020;1.0215;-0.0247;0.1868;-4.1450;1.1221;-0.8702;26.0829;
13.040;1.0212;-0.0203;0.1802;-4.1603;0.9084;-0.8321;26.1771;
13.060;1.0205;-0.0227;0.1743;-4.3588;0.9771;-0.8321;26.1771;
13.080;1.0173;-0.0190;0.1768;-4.0916;0.9389;-0.8092;26.1771;
13.099;1.0212;-0.0190;0.1714;-4.1145;0.8931;-0.7863;26.1771;
13.119;1.0229;-0.0220;0.1768;-4.1908;1.1756;-0.8092;26.1771;
13.139;1.0205;-0.0203;0.1760;-4.1908;1.0000;-0.6260;26.1771;
13.160;1.0237;-0.0269;0.1782;-4.2443;0.8473;-0.8168;26.0829;
13.179;1.0249;-0.0171;0.1807;-4.2672;0.9771;-0.7252;26.1771;
13.200;1.0178;-0.0181;0.1733;-4.2748;1.0992;-1.0305;26.0829;
13.219;1.0154;-0.0149;0.1658;-4.2366;1.0916;-0.8397;26.1771;
13.240;1.0190;-0.0220;0.1792;-4.2672;0.9771;-0.8321;26.1771;
13.259;1.0149;-0.0186;0.1748;-4.2672;0.9924;-0.8015;26.1771;
13.280;1.0227;-0.0220;0.1758;-4.2290;0.9695;-0.9542;26.1771;
13.300;1.0176;-0.0190;0.1750;-4.3359;0.9618;-0.8168;26.1771;
13.319;1.0190;-0.0125;0.1772;-4.1985;0.8626;-0.8626;26.1771;
13.340;1.0200;-0.0232;0.1802;-4.1985;0.9389;-0.7557;26.0829;
13.360;1.0159;-0.0200;0.1763;-4.1527;0.8473;-0.8015;26.0829;
13.380;1.0242;-0.0239;0.1709;-4.3817;1.0229;-0.8473;26.0829;
13.400;1.0173;-0.0215;0.1772;-4.2595;1.1298;-0.8779;26.1771;
13.419;1.0208;-0.0278;0.1770;-4.2443;1.0305;-0.8473;26.2712;
13.440;1.0183;-0.0176;0.1821;-4.3817;1.0840;-0.8931;26.0829;
13.460;1.0193;-0.0208;0.1704;-4.2748;1.0382;-0.9924;26.1771;
13.480;1.0168;-0.0151;0.1729;-4.0305;1.0153;-1.0382;26.0829;
13.500;1.0259;-0.0234;0.1731;-4.2366;1.0992;-0.8397;26.1771;
13.520;1.0220;-0.0220;0.1799;-4.2901;0.8550;-0.8855;26.1771;
13.540;1.0249;-0.0210;0.1746;-4.0916;1.0229;-0.6489;26.0829;
13.560;1.0222;-0.0203;0.1770;-4.3511;1.0229;-0.8779;26.1771;
13.579;1.0215;-0.0217;0.1775;-4.2366;0.8702;-0.8321;26.1771;
13.599;1.0176;-0.0244;0.1787;-4.3893;1.0611;-0.6336;26.1771;
13.619;1.0208;-0.0215;0.1675;-4.1069;1.0763;-0.9084;26.1771;
13.640;1.0215;-0.0193;0.1682;-4.2595;0.9542;-0.8168;26.0829;
13.660;1.0166;-0.0229;0.1704;-4.0992;0.9466;-0.7176;26.0829;
13.679;1.0212;-0.0234;0.1731;-4.2748;1.0687;-0.7176;26.1771;
13.700;1.0229;-0.0176;0.1682;-4.4809;0.8931;-0.9389;26.1771;
13.719;1.0220;-0.0244;0.1697;-4.2901;0.9771;-0.7863;26.1771;
13.739;1.0200;-0.0222;0.1775;-4.2824;0.8702;-0.7939;26.1771;
13.760;1.0212;-0.0227;0.1707;-4.2595;0.8779;-0.8779;26.0829;
13.780;1.0205;-0.0186;0.1748;-4.0840;0.8931;-0.9160;26.1771;
13.800;1.0203;-0.0217;0.1765;-4.0534;0.9847;-0.8550;26.2712;
13.819;1.0269;-0.0181;0.1748;-4.2061;0.9542;-0.9084;26.0829;
13.840;1.0225;-0.0220;0.1721;-4.2977;1.0153;-0.9313;26.0829;
13.860;1.0217;-0.0129;0.1743;-4.3511;1.0534;-0.7252;26.1771;
13.880;1.0215;-0.0212;0.1753;-4.1908;0.9618;-0.9160;26.1771;
13.900;1.0176;-0.0215;0.1716;-4.3817;0.9542;-0.8626;26.1771;
13.920;1.0205;-0.0215;0.1733;-4.2366;1.0076;-0.9771;26.1771;
13.940;1.0176;-0.0220;0.1721;-4.2061;1.0382;-0.8855;26.0829;
13.960;1.0234;-0.0166;0.1768;-4.1679;1.0611;-0.7939;26.0829;
13.980;1.0232;-0.0161;0.1677;-4.2061;0.9237;-0.9237;26.1771;
14.000;1.0203;-0.0227;0.1770;-4.2748;0.9695;-0.7023;26.1771;
14.020;1.0212;-0.0247;0.1787;-4.1679;0.9389;-0.7863;26.1771;
14.039;1.0244;-0.0234;0.1746;-4.1679;0.9313;-0.7099;26.1771;
14.060;1.0181;-0.0212;0.1707;-4.1679;0.9542;-0.8779;26.0829;
14.079;1.0193;-0.0200;0.1729;-4.0687;0.9084;-0.6641;26.1771;
14.100;1.0171;-0.0195;0.1704;-4.1145;0.9618;-0.7023;26.1771;
14.119;1.0159;-0.0215;0.1743;-4.3282;0.9237;-0.9542;26.1771;
14.139;1.0195;-0.0166;0.1792;-4.2824;0.8550;-0.8779;26.0829;
14.159;1.0181;-0.0156;0.1802;-4.2214;1.0076;-0.9542;26.1771;
14.180;1.0198;-0.0188;0.1741;-4.1450;0.8244;-0.8321;26.1771;
14.200;1.0166;-0.0208;0.1765;-4.3053;0.9084;-0.9771;26.1771;
14.219;1.0205;-0.0244;0.1721;-4.3511;0.8702;-0.7786;26.0829;
14.239;1.0166;-0.0237;0.1697;-4.2214;0.8779;-0.9847;26.0829;
14.259;1.0203;-0.0181;0.1724;-4.2443;0.8702;-0.9466;26.1771;
14.280;1.0222;-0.0168;0.1716;-4.1832;0.8321;-0.8931;26.1771;
14.300;1.0283;-0.0203;0.1702;-4.2366;0.9160;-1.0382;26.1771;
14.319;1.0190;-0.0198;0.1665;-4.3435;0.8855;-0.5802;26.0829;
14.340;1.0198;-0.0195;0.1768;-4.1832;0.9695;-0.8702;26.1771;
14.359;1.0142;-0.0266;0.1765;-4.0611;1.0382;-0.8626;26.0829;
14.379;1.0247;-0.0203;0.1743;-4.1985;0.7405;-0.7328;26.1771;
14.400;1.0234;-0.0178;0.1738;-4.2901;0.8397;-1.0000;26.1771;
14.419;1.0244;-0.0198;0.1782;-4.3206;0.9237;-0.8779;26.1771;
14.439;1.0168;-0.0242;0.1799;-4.2824;0.8931;-0.9160;26.1771;
14.459;1.0100;-0.0188;0.1772;-4.1908;1.1374;-0.8855;26.1771;
14.480;1.0190;-0.0181;0.1814;-4.2824;0.9008;-0.8321;26.0829;
14.500;1.0210;-0.0159;0.1753;-4.4351;1.0076;-0.8702;26.1771;
14.520;1.0166;-0.0249;0.1768;-4.2748;0.8550;-1.0305;26.1771;
14.539;1.0212;-0.0215;0.1731;-4.2672;0.8015;-0.8855;26.1771;
14.560;1.0195;-0.0239;0.1699;-4.3511;0.9771;-0.7328;26.0829;
14.579;1.0239;-0.0154;0.1736;-4.1756;1.1145;-0.7939;26.0829;
14.599;1.0222;-0.0217;0.1682;-4.0916;0.8702;-0.8550;26.1771;
14.620;1.0234;-0.0154;0.1755;-4.4733;0.9847;-0.8473;26.1771;
14.640;1.0242;-0.0220;0.1809;-4.2824;0.8626;-0.6336;26.1771;
14.659;1.0200;-0.0173;0.1819;-4.2137;0.9847;-0.8626;26.1771;
14.680;1.0188;-0.0190;0.1716;-4.1374;1.0153;-0.9389;26.1771;
14.700;1.0159;-0.0188;0.1709;-4.0534;0.8702;-0.9008;26.0829;
14.720;1.0110;-0.0193;0.1782;-4.0687;0.9924;-0.7863;26.1771;
14.739;1.0254;-0.0198;0.1741;-4.2824;0.9924;-0.7328;26.1771;
14.759;1.0154;-0.0166;0.1790;-4.0840;1.0153;-0.7710;26.1771;
14.780;1.0225;-0.0212;0.1838;-4.0229;1.0840;-0.8397;26.1771;
14.800;1.0205;-0.0212;0.1707;-4.3969;1.1298;-0.9695;26.1771;
14.820;1.0210;-0.0232;0.1741;-4.0992;0.7939;-0.8321;26.1771;
14.840;1.0183;-0.0208;0.1799;-4.2137;1.0305;-0.8779;26.1771;
14.859;1.0198;-0.0200;0.1670;-4.1908;1.2137;-0.9389;26.0829;
14.879;1.0208;-0.0173;0.1753;-4.2061;0.9237;-0.9008;26.0829;
14.900;1.0186;-0.0173;0.1677;-4.3130;1.0534;-0.7939;26.1771;
14.920;1.0193;-0.0205;0.1760;-4.1679;0.7786;-0.8779;26.1771;
14.939;1.0203;-0.0234;0.1721;-4.1756;0.9313;-0.7863;26.1771;
14.959;1.0176;-0.0229;0.1716;-4.0534;1.0000;-0.6641;26.2712;
14.980;1.0203;-0.0244;0.1750;-4.1832;1.0000;-0.9847;26.0829;
15.000;1.0164;-0.0210;0.1716;-4.0687;0.8244;-0.7328;26.0829;
15.019;1.0154;-0.0229;0.1797;-4.0076;0.9847;-0.6641;26.0829;
15.039;1.0198;-0.0159;0.1729;-4.3130;0.9313;-1.0076;26.1771;
15.059;1.0190;-0.0232;0.1682;-4.3435;0.8779;-0.7557;26.1771;
15.079;1.0220;-0.0210;0.1716;-4.2443;0.9847;-0.7939;26.0829;
15.099;1.0173;-0.0178;0.1768;-4.1908;1.0229;-0.8168;26.1771;
15.120;1.0178;-0.0154;0.1709;-4.3359;1.1145;-0.7863;26.0829;
15.139;1.0249;-0.0217;0.1763;-4.4275;1.0000;-0.8244;26.0829;
15.159;1.0200;-0.0210;0.1733;-4.1908;1.0000;-0.8626;26.1771;
15.179;1.0208;-0.0205;0.1792;-4.3282;0.9695;-0.7023;26.1771;
15.200;1.0142;-0.0181;0.1782;-4.2214;0.8779;-0.7099;26.1771;
15.220;1.0210;-0.0288;0.1782;-4.3588;1.0534;-0.7252;26.0829;
15.239;1.0220;-0.0239;0.1799;-4.2443;0.8397;-0.8092;26.0829;
15.259;1.0227;-0.0271;0.1750;-4.2061;0.9771;-0.9542;26.1771;
15.280;1.0239;-0.0203;0.1653;-4.3435;1.0153;-0.7252;26.0829;
15.299;1.0229;-0.0244;0.1692;-4.1679;0.9695;-0.8779;26.2712;
15.319;1.0186;-0.0205;0.1685;-4.1603;1.0687;-0.8168;26.1771;
15.339;1.0149;-0.0186;0.1743;-4.1679;1.0000;-0.7252;26.1771;
15.359;1.0212;-0.0166;0.1692;-4.0916;0.9008;-0.9084;26.1771;
15.380;1.0183;-0.0215;0.1672;-4.1374;0.9313;-0.9542;26.1771;
15.400;1.0205;-0.0210;0.1782;-4.3282;1.0763;-0.8321;26.1771;
15.419;1.0181;-0.0198;0.1772;-4.3206;0.9466;-0.8473;26.1771;
15.440;1.0190;-0.0198;0.1714;-4.1679;1.1527;-0.9847;26.1771;
15.459;1.0234;-0.0220;0.1782;-4.3511;0.9466;-0.7252;26.1771;
15.479;1.0168;-0.0168;0.1794;-4.2748;1.0687;-0.9542;26.1771;
15.500;1.0229;-0.0190;0.1709;-4.2977;0.9695;-0.9008;26.1771;
15.519;1.0232;-0.0220;0.1714;-4.1527;1.0458;-0.7176;26.0829;
15.540;1.0195;-0.0208;0.1743;-4.3893;0.8550;-0.7557;26.1771;
15.559;1.0190;-0.0261;0.1663;-4.3740;0.9389;-0.8168;26.0829;
15.580;1.0203;-0.0149;0.1794;-4.0382;0.9237;-0.8015;26.1771;
15.600;1.0168;-0.0232;0.1768;-4.2901;0.8855;-0.7405;26.0829;
15.619;1.0178;-0.0239;0.1702;-4.1527;0.9389;-0.9542;26.1771;
15.639;1.0222;-0.0212;0.1716;-4.2137;0.9542;-0.9160;26.0829;
15.659;1.0173;-0.0234;0.1733;-4.2061;0.9924;-1.0229;26.0829;
15.680;1.0254;-0.0198;0.1753;-4.2977;0.9466;-0.7939;26.0829;
15.700;1.0166;-0.0276;0.1782;-4.1527;1.0458;-0.9389;26.0829;
15.719;1.0146;-0.0225;0.1797;-4.2977;0.9389;-0.9389;26.1771;
15.739;1.0212;-0.0171;0.1631;-4.2519;0.9466;-0.9008;26.0829;
15.759;1.0229;-0.0208;0.1772;-4.3359;0.9084;-1.0229;26.1771;
15.779;1.0190;-0.0208;0.1667;-4.2672;0.9160;-0.6947;26.0829;
15.799;1.0181;-0.0264;0.1816;-4.1527;1.0687;-0.8397;26.0829;
15.819;1.0222;-0.0208;0.1750;-4.2901;1.0076;-0.7405;26.0829;
15.839;1.0161;-0.0181;0.1760;-4.2824;1.0382;-0.7481;26.1771;
15.859;1.0232;-0.0200;0.1685;-4.2137;0.8092;-0.8092;26.1771;
15.880;1.0205;-0.0227;0.1729;-4.1985;0.9313;-0.8702;26.1771;
15.900;1.0193;-0.0251;0.1692;-4.1603;0.9084;-0.8092;26.0829;
15.919;1.0173;-0.0183;0.1760;-4.2061;0.9389;-0.8397;26.0829;
15.939;1.0156;-0.0193;0.1746;-4.1679;1.0153;-0.8702;26.1771;
15.959;1.0181;-0.0200;0.1753;-4.0992;0.9084;-0.5725;26.1771;
15.980;1.0229;-0.0237;0.1748;-4.2137;0.9084;-0.8855;26.1771;
15.999;1.0173;-0.0193;0.1721;-4.1527;0.8397;-0.8626;26.1771;
16.019;1.0225;-0.0217;0.1772;-4.3511;1.0305;-0.9389;26.1771;
16.039;1.0176;-0.0151;0.1721;-4.3817;0.9924;-0.7710;26.0829;
16.059;1.0229;-0.0222;0.1707;-4.3435;1.0153;-0.8015;26.1771;
16.080;1.0173;-0.0239;0.1692;-4.1832;1.0000;-0.8015;26.0829;
16.100;1.0220;-0.0215;0.1797;-4.2748;1.0534;-0.8397;26.0829;
16.119;1.0190;-0.0203;0.1736;-4.2977;1.0916;-0.9237;26.1771;
16.139;1.0203;-0.0161;0.1768;-4.2519;0.9542;-0.8702;26.0829;
16.159;1.0168;-0.0225;0.1772;-4.2366;0.8931;-1.0458;26.0829;
16.180;1.0222;-0.0220;0.1829;-4.3206;0.8244;-0.8702;26.1771;
16.200;1.0229;-0.0237;0.1782;-4.1679;0.9847;-0.8397;26.0829;
16.219;1.0173;-0.0225;0.1704;-4.0992;0.8855;-0.9542;26.1771;
16.239;1.0208;-0.0183;0.1707;-4.1374;1.1221;-0.8473;26.0829;
16.259;1.0244;-0.0205;0.1748;-4.1221;0.8779;-0.7786;26.0829;
16.280;1.0183;-0.0212;0.1677;-4.1603;1.0076;-0.8092;26.1771;
16.300;1.0215;-0.0237;0.1702;-4.1221;1.0916;-0.7557;26.0829;
16.319;1.0210;-0.0234;0.1716;-4.1985;0.8321;-0.8702;26.0829;
16.340;1.0239;-0.0220;0.1729;-4.1527;0.9466;-0.8855;26.1771;
16.360;1.0203;-0.0188;0.1716;-4.2137;1.1298;-0.7939;26.1771;
16.380;1.0242;-0.0188;0.1697;-4.2519;0.9924;-0.7176;26.1771;
16.399;1.0256;-0.0188;0.1785;-4.0916;0.9237;-0.9771;26.1771;
16.420;1.0186;-0.0146;0.1643;-4.2214;0.9389;-0.6794;26.0829;
16.440;1.0190;-0.0215;0.1733;-4.2290;0.9160;-0.9084;26.0829;
16.460;1.0237;-0.0212;0.1746;-4.2366;0.9847;-0.8779;26.0829;
16.480;1.0205;-0.0203;0.1760;-4.2824;0.9695;-0.8779;26.2712;
16.500;1.0208;-0.0171;0.1755;-4.2061;0.9160;-0.8321;26.0829;
16.520;1.0227;-0.0205;0.1711;-4.3130;0.9313;-0.7939;26.0829;
16.539;1.0247;-0.0237;0.1785;-4.2672;0.9084;-0.8168;26.1771;
16.560;1.0261;-0.0259;0.1851;-4.3282;0.9237;-0.8550;26.1771;
16.580;1.0195;-0.0208;0.1736;-4.1298;1.0534;-0.8321;26.0829;
16.600;1.0200;-0.0266;0.1763;-4.2061;0.8550;-0.7481;26.0829;
16.620;1.0149;-0.0159;0.1758;-4.1603;0.9008;-0.9237;26.1771;
16.640;1.0210;-0.0198;0.1750;-4.1221;0.9847;-0.9313;26.1771;
16.659;1.0212;-0.0193;0.1655;-4.2824;1.0305;-0.7634;26.1771;
16.679;1.0190;-0.0190;0.1729;-4.2824;0.9542;-0.8168;26.0829;
16.700;1.0193;-0.0205;0.1768;-4.2137;1.0153;-0.8779;26.1771;
16.719;1.0183;-0.0222;0.1787;-4.0458;0.9542;-0.9084;26.1771;
16.739;1.0154;-0.0217;0.1763;-4.1832;0.9695;-0.7176;26.1771;
16.760;1.0193;-0.0242;0.1765;-4.1527;0.8244;-0.8855;26.1771;
16.780;1.0227;-0.0181;0.1641;-4.3053;0.8931;-0.8092;26.1771;
16.800;1.0212;-0.0210;0.1680;-4.3893;0.9466;-0.8473;26.1771;
16.820;1.0193;-0.0171;0.1672;-4.1527;0.9847;-0.8473;26.1771;
16.840;1.0210;-0.0234;0.1755;-4.1450;0.9160;-0.7023;26.1771;
16.859;1.0159;-0.0200;0.1753;-4.1832;1.0000;-0.9008;26.1771;
16.879;1.0193;-0.0173;0.1724;-4.1527;1.0000;-0.9160;26.1771;
16.900;1.0208;-0.0198;0.1716;-4.1832;1.1069;-0.8855;26.1771;
16.919;1.0215;-0.0195;0.1702;-4.3282;1.0992;-0.7252;26.1771;
16.939;1.0215;-0.0195;0.1714;-4.0458;0.8473;-0.9237;26.0829;
16.959;1.0203;-0.0190;0.1729;-4.2137;0.8321;-0.8473;26.1771;
16.979;1.0173;-0.0217;0.1758;-4.2519;0.9084;-0.9313;26.0829;
16.999;1.0188;-0.0220;0.1787;-4.2443;0.9695;-1.0992;26.1771;
17.019;1.0156;-0.0266;0.1692;-4.3664;0.9695;-1.0916;26.1771;
17.039;1.0200;-0.0237;0.1790;-4.2061;0.8397;-0.8473;26.0829;
17.059;1.0208;-0.0237;0.1748;-4.4733;0.9313;-0.7863;25.9888;
17.080;1.0186;-0.0310;0.1846;-4.2137;0.7405;-0.9313;26.1771;
17.100;1.0198;-0.0146;0.1707;-4.3130;0.9160;-0.8702;26.0829;
17.119;1.0227;-0.0210;0.1780;-4.2901;1.0000;-0.7710;26.1771;
17.139;1.0176;-0.0227;0.1792;-4.2366;1.0992;-0.9237;26.0829;
17.159;1.0186;-0.0193;0.1638;-4.2977;0.9847;-0.8702;26.2712;
17.180;1.0215;-0.0222;0.1792;-4.2366;1.0763;-0.9695;26.0829;
17.200;1.0212;-0.0186;0.1682;-4.1527;0.9008;-0.7634;26.1771;
17.219;1.0203;-0.0229;0.1775;-4.2214;1.0916;-0.7786;26.1771;
17.239;1.0198;-0.0176;0.1689;-4.2214;0.9695;-0.6947;26.0829;
17.259;1.0229;-0.0186;0.1753;-4.1603;0.8626;-0.8397;26.0829;
17.279;1.0212;-0.0215;0.1748;-4.1298;1.1908;-0.7557;26.1771;
17.299;1.0217;-0.0237;0.1760;-4.1679;0.9542;-0.9695;26.1771;
17.319;1.0195;-0.0205;0.1672;-4.3511;0.9466;-0.8931;26.1771;
17.339;1.0200;-0.0161;0.1768;-4.1985;0.9313;-0.9008;26.1771;
17.359;1.0217;-0.0256;0.1750;-4.1145;1.0305;-0.7557;26.0829;
17.380;1.0254;-0.0249;0.1802;-4.2137;1.0916;-0.8397;26.1771;
17.400;1.0227;-0.0198;0.1787;-4.3206;0.8779;-0.9313;26.1771;
17.420;1.0188;-0.0217;0.1741;-4.1832;0.9389;-0.8244;26.1771;
17.440;1.0186;-0.0242;0.1804;-4.3053;1.0076;-1.0611;26.1771;
17.459;1.0217;-0.0166;0.1685;-4.0000;1.0840;-0.9924;26.1771;
17.479;1.0146;-0.0220;0.1741;-4.2290;1.0458;-0.8779;26.0829;
17.500;1.0142;-0.0227;0.1743;-4.1221;0.9389;-0.8168;26.0829;
17.519;1.0229;-0.0222;0.1685;-4.1756;0.9084;-0.8550;26.2712;
17.540;1.0237;-0.0168;0.1687;-4.3053;1.1603;-0.8855;26.1771;
17.560;1.0186;-0.0217;0.1802;-4.1298;0.8931;-0.8321;26.2712;
17.580;1.0173;-0.0242;0.1699;-4.2595;1.1145;-0.9008;26.1771;
17.600;1.0225;-0.0212;0.1733;-4.3053;0.8931;-0.9542;26.1771;
17.619;1.0198;-0.0203;0.1721;-4.3969;1.0382;-0.9847;26.1771;
17.639;1.0261;-0.0295;0.1802;-4.1450;1.0305;-0.8779;26.1771;
17.659;1.0173;-0.0203;0.1736;-4.3664;1.0840;-0.6794;26.1771;
17.680;1.0215;-0.0212;0.1775;-4.3053;1.2443;-0.8626;26.0829;
17.700;1.0217;-0.0242;0.1738;-4.0992;1.0382;-0.6947;26.1771;
17.719;1.0229;-0.0183;0.1711;-4.1756;1.0153;-0.8779;26.0829;
17.739;1.0168;-0.0215;0.1697;-4.2061;1.1298;-0.8168;26.0829;
17.759;1.0173;-0.0193;0.1694;-4.1603;0.9237;-1.0076;26.0829;
17.780;1.0239;-0.0244;0.1716;-4.0763;0.9618;-0.9008;26.1771;
17.799;1.0203;-0.0190;0.1787;-4.3511;1.0000;-0.8931;26.0829;
17.819;1.0276;-0.0159;0.1743;-4.1527;0.9313;-0.7252;26.1771;
17.839;1.0154;-0.0283;0.1780;-4.2748;1.0229;-0.7939;26.0829;
17.859;1.0188;-0.0264;0.1709;-4.1908;0.8321;-0.9008;26.1771;
17.880;1.0256;-0.0237;0.1672;-4.2901;0.9618;-0.9008;26.0829;
17.900;1.0234;-0.0212;0.1770;-4.1908;0.9924;-0.9618;26.0829;
17.920;1.0210;-0.0283;0.1741;-4.4351;0.9008;-0.6947;26.1771;
17.939;1.0164;-0.0203;0.1799;-4.3511;1.0458;-0.6565;26.0829;
17.959;1.0190;-0.0200;0.1689;-4.1145;1.0611;-0.8092;26.0829;
17.980;1.0212;-0.0281;0.1738;-4.1985;0.9160;-0.8779;26.1771;
18.000;1.0186;-0.0208;0.1687;-4.2290;0.8626;-0.7328;26.1771;
18.020;1.0244;-0.0271;0.1755;-4.0076;1.0153;-0.7176;26.1771;
18.040;1.0137;-0.0208;0.1733;-4.2824;0.9389;-0.8244;26.0829;
18.059;1.0227;-0.0171;0.1753;-4.1832;1.0458;-0.8092;26.1771;
18.080;1.0178;-0.0188;0.1807;-4.2061;1.0229;-0.7557;26.0829;
18.100;1.0188;-0.0227;0.1702;-4.1298;0.8626;-0.8168;26.0829;
18.120;1.0168;-0.0210;0.1772;-4.0687;1.1603;-1.0611;26.1771;
18.139;1.0125;-0.0256;0.1724;-4.3511;0.8855;-0.8321;26.1771;
18.159;1.0222;-0.0220;0.1709;-4.3053;1.1374;-0.9237;26.1771;
18.180;1.0188;-0.0156;0.1807;-4.1908;0.8779;-0.7328;26.0829;
18.200;1.0176;-0.0225;0.1736;-4.0382;1.0534;-0.9237;26.1771;
18.219;1.0156;-0.0142;0.1765;-4.1832;1.0382;-0.9389;26.1771;
18.239;1.0181;-0.0220;0.1721;-4.3817;0.9695;-0.9160;26.0829;
18.259;1.0210;-0.0181;0.1772;-4.1908;0.9618;-0.8092;26.0829;
18.280;1.0137;-0.0251;0.1775;-4.2748;0.9160;-0.9237;26.1771;
18.300;1.0159;-0.0208;0.1736;-4.1527;0.9237;-0.8855;26.0829;
18.319;1.0212;-0.0247;0.1782;-4.0611;0.9008;-0.8626;26.0829;
18.339;1.0261;-0.0247;0.1719;-4.2824;0.9084;-0.8473;26.0829;
18.359;1.0125;-0.0168;0.1802;-4.1374;1.0382;-0.7634;26.1771;
18.380;1.0266;-0.0205;0.1738;-4.1603;0.8626;-0.8473;26.1771;
18.400;1.0190;-0.0222;0.1768;-4.1908;0.9618;-0.8550;26.0829;
18.419;1.0220;-0.0210;0.1667;-4.2977;0.8855;-0.8168;26.1771;
18.439;1.0186;-0.0222;0.1829;-4.3359;1.1298;-1.0382;26.1771;
18.459;1.0212;-0.0212;0.1748;-4.3588;1.1756;-0.7023;26.1771;
18.479;1.0171;-0.0222;0.1794;-4.2519;1.0076;-0.7328;26.0829;
18.499;1.0195;-0.0168;0.1738;-4.1145;1.0305;-0.7557;26.1771;
18.519;1.0154;-0.0220;0.1675;-4.1908;0.9160;-0.9466;26.0829;
18.539;1.0188;-0.0249;0.1738;-4.2824;1.0229;-0.8702;26.1771;
18.559;1.0166;-0.0244;0.1736;-4.1603;0.8702;-0.6794;26.0829;
18.579;1.0203;-0.0176;0.1741;-4.1832;0.9771;-0.9466;26.0829;
18.600;1.0134;-0.0181;0.1719;-4.2824;0.8092;-0.9237;26.0829;
18.619;1.0188;-0.0173;0.1741;-3.9084;1.0153;-0.8550;26.1771;
18.639;1.0208;-0.0222;0.1758;-4.2519;1.0229;-0.8244;26.1771;
18.660;1.0244;-0.0200;0.1802;-4.3359;1.1832;-0.8550;26.1771;
18.679;1.0198;-0.0193;0.1851;-4.1756;0.9771;-0.8931;26.0829;
18.700;1.0239;-0.0247;0.1672;-4.3130;0.9695;-0.8626;26.0829;
18.719;1.0188;-0.0176;0.1711;-4.2214;1.0000;-0.7405;26.1771;
18.739;1.0203;-0.0247;0.1692;-4.2595;1.1069;-0.7099;26.0829;
18.759;1.0178;-0.0229;0.1711;-4.1603;1.0153;-0.9160;26.1771;
18.779;1.0217;-0.0215;0.1704;-4.2137;0.9771;-0.9389;26.1771;
18.800;1.0212;-0.0215;0.1611;-4.2672;1.0153;-0.7786;26.1771;
18.820;1.0178;-0.0234;0.1729;-4.1985;1.0687;-0.7863;26.1771;
18.840;1.0210;-0.0212;0.1653;-4.2748;1.1527;-0.8473;26.0829;
18.860;1.0217;-0.0203;0.1702;-4.2748;0.9695;-0.8015;26.1771;
18.879;1.0190;-0.0217;0.1799;-4.2061;1.0611;-0.8473;26.1771;
18.900;1.0198;-0.0220;0.1680;-4.2366;0.9008;-0.8931;26.0829;
18.919;1.0244;-0.0181;0.1816;-4.3435;1.0534;-0.8702;26.1771;
18.939;1.0188;-0.0205;0.1797;-4.1450;0.8626;-0.9008;26.1771;
18.959;1.0173;-0.0225;0.1802;-4.2595;0.9771;-0.7786;26.0829;
18.979;1.0149;-0.0215;0.1709;-4.0763;0.8702;-0.6794;26.0829;
19.000;1.0173;-0.0195;0.1763;-4.1832;0.9695;-0.9160;26.0829;
19.019;1.0176;-0.0222;0.1753;-4.2748;0.9008;-0.7328;26.0829;
19.040;1.0239;-0.0190;0.1750;-4.1832;0.9008;-0.7099;26.1771;
19.059;1.0190;-0.0193;0.1785;-4.1679;0.8931;-0.7786;26.0829;
19.080;1.0195;-0.0164;0.1736;-4.1908;0.9466;-0.8244;26.0829;
19.100;1.0198;-0.0208;0.1709;-4.1145;0.9008;-0.7634;26.1771;
19.119;1.0154;-0.0200;0.1709;-4.1527;1.1145;-0.8931;26.1771;
19.139;1.0183;-0.0203;0.1707;-4.1985;0.9313;-0.8168;26.0829;
19.159;1.0203;-0.0208;0.1824;-4.3206;1.0229;-0.8244;26.1771;
19.180;1.0159;-0.0225;0.1724;-4.1985;1.0229;-0.8168;26.1771;
19.200;1.0190;-0.0247;0.1729;-4.3740;1.0458;-0.9160;26.0829;
19.220;1.0203;-0.0193;0.1731;-4.2137;0.9313;-0.9771;26.0829;
19.240;1.0164;-0.0188;0.1807;-4.1527;1.0076;-0.8779;26.1771;
19.260;1.0205;-0.0273;0.1765;-4.1527;0.9160;-1.0076;26.1771;
19.279;1.0171;-0.0205;0.1746;-4.3817;0.8473;-0.8168;26.0829;
19.300;1.0212;-0.0190;0.1792;-4.4122;0.8626;-0.7405;26.1771;
19.320;1.0190;-0.0212;0.1787;-4.0229;0.9695;-0.9008;26.1771;
19.340;1.0239;-0.0183;0.1675;-4.2366;1.0534;-0.8168;26.0829;
19.360;1.0210;-0.0208;0.1797;-4.3740;1.2519;-1.0611;26.1771;
19.380;1.0203;-0.0205;0.1792;-4.1374;0.9466;-0.7405;26.1771;
19.400;1.0181;-0.0195;0.1743;-4.2137;0.9084;-0.8779;26.1771;
19.419;1.0220;-0.0186;0.1733;-4.2519;0.8473;-0.8244;26.1771;
19.440;1.0210;-0.0154;0.1687;-4.0763;1.0076;-0.7405;26.0829;
19.460;1.0188;-0.0178;0.1711;-4.3053;0.9313;-0.7252;26.0829;
19.480;1.0125;-0.0249;0.1721;-4.3282;1.0305;-0.7634;26.0829;
19.500;1.0232;-0.0266;0.1709;-4.2290;0.8550;-0.9389;26.0829;
19.520;1.0186;-0.0261;0.1648;-4.1298;0.9160;-0.8702;26.0829;
19.540;1.0161;-0.0232;0.1719;-4.1985;0.8397;-0.9466;26.0829;
19.559;1.0239;-0.0171;0.1604;-4.2290;0.9771;-0.8092;26.0829;
19.579;1.0242;-0.0183;0.1716;-4.2443;1.1221;-0.9542;26.0829;
19.600;1.0171;-0.0198;0.1738;-4.2519;0.8626;-0.8779;26.1771;
19.619;1.0239;-0.0181;0.1746;-4.1832;0.8855;-0.8321;26.0829;
19.639;1.0186;-0.0190;0.1702;-4.1985;0.9008;-0.8931;26.1771;
19.660;1.0234;-0.0168;0.1687;-4.1527;0.9160;-0.8244;26.0829;
19.680;1.0220;-0.0176;0.1707;-4.3282;0.9618;-0.8626;26.0829;
19.700;1.0176;-0.0229;0.1699;-4.2366;0.8473;-0.8550;26.1771;
19.719;1.0210;-0.0256;0.1746;-4.3130;1.0000;-0.7176;26.0829;
19.739;1.0208;-0.0129;0.1748;-4.1603;0.8550;-0.9084;26.0829;
19.759;1.0205;-0.0156;0.1721;-4.3664;1.0916;-0.8015;26.1771;
19.780;1.0247;-0.0237;0.1763;-4.2672;0.9237;-0.7786;26.0829;
19.800;1.0232;-0.0273;0.1682;-4.2290;1.0916;-0.6794;26.1771;
19.819;1.0183;-0.0203;0.1707;-4.2748;1.0229;-0.9084;26.0829;
19.839;1.0247;-0.0181;0.1765;-4.2061;1.0611;-0.9313;26.0829;
19.860;1.0239;-0.0215;0.1677;-4.2290;0.9313;-0.8702;26.0829;
19.880;1.0242;-0.0264;0.1782;-4.2290;1.0076;-0.8855;26.0829;
19.900;1.0259;-0.0166;0.1699;-4.2748;0.8855;-0.7863;26.1771;
19.919;1.0166;-0.0225;0.1731;-4.1374;0.8931;-0.8855;26.0829;
19.939;1.0178;-0.0249;0.1719;-4.2214;0.8702;-0.7939;26.0829;
19.959;1.0276;-0.0178;0.1772;-4.3206;0.9771;-0.8626;26.0829;
19.979;1.0173;-0.0276;0.1699;-4.2137;1.0153;-0.8473;26.1771;
20.000;1.0183;-0.0188;0.1860;-4.2061;0.8244;-0.7557;26.0829;
20.019;1.0205;-0.0161;0.1770;-4.2748;1.0992;-0.7328;26.0829;
20.040;1.0159;-0.0239;0.1753;-4.2824;0.9008;-0.8092;26.1771;
20.060;1.0298;-0.0203;0.1733;-4.2748;1.0687;-0.6336;26.0829;
20.080;1.0222;-0.0208;0.1753;-4.1374;1.0305;-0.8550;26.0829;
20.100;1.0181;-0.0190;0.1724;-4.3206;0.9924;-0.9389;26.0829;
20.119;1.0188;-0.0212;0.1775;-4.1603;0.9847;-0.7939;26.1771;
20.139;1.0186;-0.0203;0.1753;-4.0687;1.1221;-0.7557;26.1771;
20.159;1.0183;-0.0234;0.1736;-4.3053;0.9008;-0.8702;26.0829;
20.180;1.0181;-0.0200;0.1719;-4.1069;1.0153;-0.8473;26.1771;
20.200;1.0247;-0.0151;0.1692;-4.1527;1.0305;-0.8244;26.0829;
20.220;1.0229;-0.0220;0.1768;-4.3053;0.9924;-0.8015;26.1771;
20.240;1.0159;-0.0190;0.1733;-4.2901;0.8244;-0.9084;26.1771;
20.259;1.0208;-0.0220;0.1726;-4.2061;0.9237;-0.9771;26.1771;
20.279;1.0208;-0.0200;0.1755;-4.3053;0.9542;-1.0076;26.0829;
20.300;1.0227;-0.0186;0.1704;-4.1450;0.9695;-0.7939;26.1771;
20.319;1.0225;-0.0193;0.1733;-4.2672;0.9847;-1.0687;26.0829;
20.340;1.0193;-0.0229;0.1775;-4.2137;1.0611;-0.6794;26.0829;
20.360;1.0273;-0.0203;0.1711;-4.2137;1.0763;-0.8855;26.0829;
20.380;1.0225;-0.0242;0.1692;-4.2061;0.9924;-0.7405;25.9888;
20.400;1.0251;-0.0178;0.1675;-4.3817;1.1069;-0.7557;26.0829;
20.419;1.0186;-0.0220;0.1750;-4.0916;0.8855;-0.8473;26.0829;
20.439;1.0222;-0.0142;0.1743;-4.1985;1.0305;-0.8779;26.1771;
20.460;1.0225;-0.0146;0.1707;-4.2290;0.8626;-0.9008;26.1771;
20.480;1.0247;-0.0188;0.1711;-4.3282;0.8321;-0.6718;26.1771;
20.500;1.0251;-0.0222;0.1799;-4.0992;1.0382;-0.9695;26.1771;
20.520;1.0173;-0.0208;0.1699;-4.1450;0.9466;-0.7786;26.0829;
20.539;1.0173;-0.0225;0.1748;-4.3740;0.8397;-0.8550;26.1771;
20.560;1.0203;-0.0237;0.1753;-4.1145;1.0076;-0.7634;25.9888;
20.580;1.0225;-0.0222;0.1707;-4.3511;1.1069;-0.9084;26.0829;
20.599;1.0215;-0.0234;0.1707;-4.1221;0.9389;-0.7557;26.1771;
20.619;1.0247;-0.0188;0.1790;-4.2214;1.0611;-0.8626;26.0829;
20.639;1.0168;-0.0242;0.1790;-4.2901;0.9008;-1.0076;26.0829;
20.660;1.0215;-0.0151;0.1763;-4.1145;1.1908;-0.7634;26.0829;
20.680;1.0200;-0.0222;0.1750;-4.3435;1.1603;-0.8855;26.0829;
20.700;1.0132;-0.0198;0.1733;-4.2824;1.1527;-0.8015;26.1771;
20.719;1.0256;-0.0208;0.1721;-4.2061;1.0611;-0.9695;26.0829;
20.739;1.0195;-0.0205;0.1743;-4.1985;0.9466;-0.8244;26.0829;
20.759;1.0203;-0.0193;0.1755;-4.1832;1.0534;-0.7557;25.9888;
20.780;1.0181;-0.0227;0.1687;-4.2366;0.9695;-0.7557;26.1771;
20.799;1.0210;-0.0151;0.1804;-4.1221;0.9771;-0.8015;26.0829;
20.819;1.0161;-0.0239;0.1733;-4.2824;1.0305;-0.9542;26.0829;
20.839;1.0205;-0.0195;0.1758;-4.3817;1.0305;-0.8244;26.0829;
20.859;1.0181;-0.0183;0.1702;-4.1527;1.0382;-0.9924;26.0829;
20.880;1.0234;-0.0215;0.1782;-4.4046;1.0076;-0.8702;26.0829;
20.900;1.0195;-0.0234;0.1746;-4.2137;1.0916;-0.8015;26.0829;
20.919;1.0190;-0.0171;0.1753;-4.2595;1.0305;-0.8626;26.0829;
20.939;1.0198;-0.0254;0.1746;-4.1679;0.9084;-0.7786;26.1771;
20.960;1.0222;-0.0200;0.1753;-4.2672;0.8931;-0.7405;26.0829;
20.980;1.0173;-0.0193;0.1750;-4.2290;0.9618;-0.6489;26.0829;
21.000;1.0151;-0.0190;0.1802;-4.2443;0.9389;-0.8168;26.0829;
21.019;1.0234;-0.0222;0.1753;-4.3359;1.0458;-0.7099;26.1771;
21.039;1.0237;-0.0181;0.1777;-4.1832;0.9847;-0.8092;25.9888;
21.059;1.0220;-0.0166;0.1858;-4.1908;1.0687;-0.7557;26.0829;
21.080;1.0195;-0.0239;0.1821;-4.3053;0.9695;-0.7481;26.0829;
21.100;1.0200;-0.0247;0.1685;-4.1908;0.9313;-0.9771;26.0829;
21.119;1.0222;-0.0247;0.1707;-4.1679;1.0382;-0.7481;26.0829;
21.139;1.0208;-0.0176;0.1797;-4.2290;0.9847;-0.6947;26.0829;
21.159;1.0234;-0.0249;0.1675;-4.2214;0.9695;-0.9695;26.1771;
21.180;1.0186;-0.0244;0.1743;-4.2061;0.7710;-0.8855;26.1771;
21.200;1.0227;-0.0229;0.1699;-4.3053;1.0305;-0.8626;26.1771;
21.219;1.0242;-0.0166;0.1746;-4.2137;0.9008;-1.0000;25.9888;
21.239;1.0208;-0.0222;0.1741;-4.2443;1.0229;-0.7710;26.1771;
21.259;1.0210;-0.0173;0.1702;-4.2061;0.8473;-0.8550;26.0829;
21.280;1.0210;-0.0178;0.1780;-4.3511;0.9466;-0.7252;26.1771;
21.299;1.0198;-0.0217;0.1775;-4.0763;0.8550;-0.7557;26.1771;
21.319;1.0198;-0.0239;0.1660;-4.2137;0.9389;-0.9313;26.1771;
21.339;1.0188;-0.0188;0.1763;-4.3893;0.9847;-0.6718;26.1771;
21.359;1.0244;-0.0176;0.1790;-4.2137;0.8931;-0.8244;26.1771;
21.380;1.0166;-0.0234;0.1702;-4.1985;1.0000;-0.7863;26.0829;
21.400;1.0164;-0.0200;0.1719;-4.2824;0.8779;-0.9160;26.0829;
21.420;1.0232;-0.0256;0.1741;-4.0611;1.0763;-0.8626;26.1771;
21.439;1.0203;-0.0193;0.1743;-4.2748;1.0611;-0.7863;26.0829;
21.459;1.0159;-0.0188;0.1780;-4.4046;1.0305;-0.9389;26.0829;
21.480;1.0195;-0.0229;0.1636;-4.2672;0.9924;-0.7023;26.0829;
21.500;1.0190;-0.0222;0.1670;-4.1756;1.0153;-0.8244;26.1771;
21.519;1.0200;-0.0269;0.1748;-4.2137;0.8931;-0.7557;26.1771;
21.539;1.0176;-0.0222;0.1711;-4.2824;1.0458;-0.8473;25.9888;
21.559;1.0176;-0.0176;0.1699;-4.2214;1.0153;-0.9466;26.0829;
21.580;1.0186;-0.0193;0.1780;-4.0992;0.9389;-0.9160;26.0829;
21.600;1.0178;-0.0215;0.1694;-4.1603;0.9237;-0.9466;26.1771;
21.619;1.0198;-0.0208;0.1648;-4.2061;0.9084;-0.7786;26.1771;
21.639;1.0166;-0.0193;0.1714;-4.3282;0.7939;-0.7939;26.0829;
21.659;1.0146;-0.0186;0.1738;-4.1832;0.9313;-0.8015;26.0829;
21.680;1.0217;-0.0183;0.1694;-4.1908;0.9313;-0.6947;26.1771;
21.700;1.0193;-0.0125;0.1782;-4.2137;1.0000;-0.8244;26.1771;
21.719;1.0232;-0.0251;0.1807;-4.2672;0.8321;-0.8244;26.0829;
21.739;1.0234;-0.0210;0.1711;-4.1298;0.9924;-0.8931;26.1771;
21.759;1.0176;-0.0200;0.1702;-4.3435;0.8702;-0.7786;26.0829;
21.779;1.0168;-0.0190;0.1709;-4.2824;0.9618;-0.9924;26.0829;
21.800;1.0137;-0.0151;0.1719;-4.1527;0.8321;-0.7634;26.1771;
21.819;1.0173;-0.0178;0.1738;-4.3130;0.8931;-0.8550;26.1771;
21.840;1.0154;-0.0261;0.1765;-4.3206;1.0382;-0.7176;26.1771;
21.860;1.0264;-0.0164;0.1775;-4.2061;1.0611;-0.7710;26.0829;
21.880;1.0139;-0.0183;0.1716;-4.3664;1.1221;-0.8168;26.0829;
21.900;1.0146;-0.0225;0.1772;-4.2595;0.9466;-0.7176;26.1771;
21.919;1.0166;-0.0156;0.1743;-4.2061;1.1374;-0.7786;26.0829;
21.939;1.0129;-0.0237;0.1750;-4.4046;1.0076;-0.7252;26.1771;
21.959;1.0239;-0.0203;0.1743;-4.3130;1.0840;-0.9695;26.0829;
21.979;1.0234;-0.0144;0.1716;-4.1832;0.9618;-0.7252;26.0829;
22.000;1.0205;-0.0164;0.1782;-4.1908;1.1908;-0.9313;26.0829;
22.020;1.0183;-0.0234;0.1714;-4.2443;0.9084;-0.9466;26.1771;
22.039;1.0225;-0.0146;0.1785;-4.2519;1.0076;-0.9237;26.1771;
22.059;1.0181;-0.0195;0.1814;-4.3130;0.9237;-0.8397;26.0829;
22.079;1.0171;-0.0222;0.1736;-4.2214;0.8397;-0.8931;26.1771;
22.100;1.0225;-0.0208;0.1729;-4.3588;0.8626;-0.8626;26.1771;
22.119;1.0232;-0.0188;0.1755;-4.1603;0.8779;-0.8779;26.1771;
22.139;1.0173;-0.0229;0.1763;-4.3282;1.0153;-0.9237;26.1771;
22.159;1.0225;-0.0208;0.1765;-4.1527;0.8321;-0.7710;26.0829;
22.179;1.0217;-0.0190;0.1829;-4.1603;1.1298;-0.9389;26.1771;
22.200;1.0215;-0.0164;0.1794;-4.2137;0.9084;-0.9389;26.0829;
22.219;1.0203;-0.0232;0.1726;-4.1221;0.9313;-1.0305;26.1771;
22.239;1.0186;-0.0193;0.1790;-4.1298;0.9771;-0.9618;26.1771;
22.259;1.0195;-0.0181;0.1716;-4.4275;0.8244;-0.8015;26.0829;
22.279;1.0164;-0.0215;0.1790;-4.2443;1.0153;-0.7786;26.1771;
22.300;1.0164;-0.0164;0.1785;-4.3130;0.9771;-0.6183;26.0829;
22.319;1.0256;-0.0239;0.1794;-4.3664;1.0076;-0.8321;25.9888;
22.339;1.0195;-0.0229;0.1733;-4.2672;0.9237;-0.8550;26.0829;
22.359;1.0132;-0.0178;0.1758;-4.1908;0.9237;-0.8779;26.0829;
22.379;1.0190;-0.0151;0.1748;-4.2901;0.8779;-0.8473;26.0829;
22.400;1.0200;-0.0193;0.1611;-4.3511;1.0763;-0.8321;26.0829;
22.419;1.0183;-0.0181;0.1746;-4.1985;0.8931;-0.8702;26.0829;
22.439;1.0154;-0.0198;0.1733;-4.1450;1.0382;-0.7634;26.1771;
22.459;1.0195;-0.0220;0.1724;-4.4427;0.9771;-0.8931;26.1771;
22.479;1.0151;-0.0171;0.1736;-4.1756;0.8779;-0.7405;26.1771;
22.500;1.0251;-0.0149;0.1741;-4.0076;1.0840;-1.0153;26.0829;
22.519;1.0242;-0.0178;0.1794;-4.2137;0.9924;-0.8931;26.0829;
22.539;1.0159;-0.0254;0.1768;-4.2061;0.9313;-0.8015;26.1771;
22.559;1.0229;-0.0315;0.1711;-4.3969;0.8779;-0.8321;26.1771;
22.579;1.0244;-0.0251;0.1714;-4.3359;1.0916;-0.9389;26.1771;
22.600;1.0217;-0.0190;0.1736;-4.1832;0.9466;-0.8244;26.0829;
22.619;1.0203;-0.0198;0.1748;-4.2137;1.0534;-1.0000;26.0829;
22.640;1.0225;-0.0227;0.1724;-4.2214;0.8779;-0.9160;26.1771;
22.659;1.0200;-0.0154;0.1689;-4.2977;0.9160;-0.7863;26.0829;
22.679;1.0215;-0.0154;0.1670;-4.0076;0.9924;-0.7939;26.1771;
22.699;1.0244;-0.0183;0.1719;-4.3664;0.9237;-0.9160;26.1771;
22.719;1.0188;-0.0251;0.1758;-4.1908;0.9924;-0.8092;26.0829;
22.739;1.0229;-0.0229;0.1780;-4.2595;1.0534;-0.9618;26.0829;
22.759;1.0208;-0.0234;0.1716;-4.4275;0.8931;-0.8244;26.1771;
22.779;1.0217;-0.0212;0.1777;-4.2061;0.9618;-0.8244;26.0829;
22.800;1.0273;-0.0227;0.1768;-4.1374;0.9695;-0.8855;26.1771;
22.819;1.0234;-0.0259;0.1763;-4.1527;1.0458;-0.9237;26.0829;
22.839;1.0193;-0.0208;0.1689;-4.2595;1.1527;-0.8779;26.0829;
22.860;1.0222;-0.0139;0.1702;-4.2366;0.9389;-0.9237;26.0829;
22.879;1.0178;-0.0195;0.1748;-4.1221;0.9695;-0.8397;26.1771;
22.899;1.0195;-0.0186;0.1755;-4.3740;1.0305;-0.8092;26.0829;
22.919;1.0217;-0.0193;0.1716;-4.2977;0.9695;-0.9084;26.0829;
22.939;1.0244;-0.0176;0.1797;-4.3130;0.9160;-0.8550;26.0829;
22.959;1.0186;-0.0188;0.1738;-4.2443;1.0153;-1.0076;26.1771;
22.979;1.0186;-0.0212;0.1794;-4.1603;0.9847;-0.8855;26.1771;
23.000;1.0210;-0.0208;0.1807;-4.0076;0.9924;-0.8244;26.1771;
23.019;1.0227;-0.0164;0.1755;-4.2290;0.8244;-0.7710;26.0829;
23.039;1.0215;-0.0229;0.1748;-4.0992;1.0534;-0.8397;26.0829;
23.059;1.0205;-0.0251;0.1726;-4.1985;0.8550;-0.9008;26.1771;
23.079;1.0234;-0.0171;0.1768;-4.1603;1.0305;-0.7786;26.0829;
23.100;1.0242;-0.0168;0.1721;-4.0076;1.0687;-0.6336;26.0829;
23.119;1.0254;-0.0215;0.1738;-4.2901;1.0534;-0.9008;26.0829;
23.139;1.0208;-0.0190;0.1741;-4.2137;1.0229;-0.7557;26.1771;
23.159;1.0232;-0.0208;0.1741;-4.1374;0.9389;-0.7481;26.0829;
23.179;1.0198;-0.0198;0.1746;-4.0687;0.9466;-0.8931;26.1771;
23.200;1.0256;-0.0193;0.1741;-4.1679;0.9237;-0.9542;26.0829;
23.219;1.0193;-0.0173;0.1802;-4.3206;0.8244;-0.8550;26.1771;
23.239;1.0190;-0.0237;0.1812;-4.2901;0.9924;-0.9237;26.0829;
23.259;1.0217;-0.0222;0.1768;-4.2901;0.9924;-0.8397;26.1771;
23.279;1.0212;-0.0227;0.1760;-4.1603;0.8092;-0.7252;26.0829;
23.300;1.0247;-0.0198;0.1824;-4.1527;0.9466;-0.9924;26.0829;
23.319;1.0205;-0.0166;0.1755;-4.3359;0.9618;-0.9466;26.0829;
23.339;1.0244;-0.0159;0.1724;-4.1756;0.7939;-0.7405;26.0829;
23.359;1.0186;-0.0256;0.1733;-4.2061;0.9389;-0.7939;26.0829;
23.379;1.0176;-0.0237;0.1777;-4.2748;1.0534;-0.9237;26.1771;
23.399;1.0183;-0.0181;0.1697;-4.2519;0.8473;-0.9313;26.0829;
23.419;1.0176;-0.0193;0.1682;-4.0458;1.0687;-0.9008;26.1771;
23.440;1.0259;-0.0200;0.1726;-4.2214;1.0153;-0.8244;26.0829;
23.459;1.0186;-0.0220;0.1733;-4.2672;1.0305;-0.8931;26.0829;
23.479;1.0161;-0.0171;0.1733;-4.1069;0.9084;-0.9389;26.0829;
23.499;1.0161;-0.0186;0.1775;-4.2748;1.0763;-0.7939;26.1771;
23.519;1.0176;-0.0225;0.1748;-4.2748;0.9771;-0.8473;26.1771;
23.539;1.0183;-0.0186;0.1758;-4.0458;1.1145;-0.7557;26.0829;
23.560;1.0225;-0.0247;0.1724;-4.2901;0.9771;-0.8244;26.0829;
23.579;1.0168;-0.0205;0.1716;-4.2214;0.9084;-0.8702;26.0829;
23.599;1.0220;-0.0193;0.1826;-4.1756;0.9389;-0.8321;26.1771;
23.619;1.0208;-0.0227;0.1738;-4.1221;0.9771;-0.7634;26.0829;
23.639;1.0220;-0.0227;0.1714;-4.3130;0.8931;-0.9237;26.1771;
23.659;1.0232;-0.0232;0.1753;-4.2901;1.0000;-0.7023;26.0829;
23.679;1.0190;-0.0269;0.1719;-4.2290;0.9847;-0.6565;26.0829;
23.700;1.0195;-0.0220;0.1770;-4.3435;1.0382;-0.8550;26.1771;
23.719;1.0181;-0.0217;0.1714;-4.2824;0.9313;-0.8092;26.1771;
23.739;1.0195;-0.0193;0.1731;-4.2061;0.6794;-1.0000;25.9888;
23.759;1.0195;-0.0266;0.1716;-4.1908;1.0229;-0.7405;26.0829;
23.779;1.0156;-0.0183;0.1665;-4.3282;1.0000;-0.8931;26.0829;
23.800;1.0217;-0.0208;0.1765;-4.2137;0.8626;-1.0382;26.1771;
23.819;1.0181;-0.0181;0.1738;-4.1756;1.1298;-0.8855;26.0829;
23.839;1.0249;-0.0186;0.1677;-4.1756;1.1145;-0.8015;26.0829;
23.859;1.0193;-0.0220;0.1770;-4.1603;0.9542;-0.8779;25.9888;
23.879;1.0183;-0.0168;0.1763;-4.3664;0.9160;-0.8779;26.0829;
23.900;1.0176;-0.0190;0.1785;-4.1679;0.8931;-0.8015;26.1771;
23.919;1.0220;-0.0205;0.1763;-4.0534;1.0000;-0.8092;26.0829;
23.939;1.0210;-0.0229;0.1665;-4.2977;0.9084;-0.8244;26.1771;
23.960;1.0159;-0.0176;0.1746;-4.2977;0.9389;-1.0534;26.0829;
23.979;1.0217;-0.0229;0.1748;-4.3435;0.9542;-0.7786;26.0829;
23.999;1.0247;-0.0215;0.1777;-4.2595;1.0000;-0.8168;26.0829;
24.019;1.0146;-0.0227;0.1729;-4.2443;1.0305;-1.0153;26.0829;
24.039;1.0183;-0.0203;0.1755;-4.2595;0.9466;-0.7405;26.0829;
24.059;1.0159;-0.0188;0.1787;-4.2672;0.9847;-0.9924;26.1771;
24.079;1.0195;-0.0234;0.1758;-4.3664;0.9847;-0.7710;26.0829;
24.100;1.0229;-0.0212;0.1636;-4.2748;0.9924;-0.7557;26.0829;
24.119;1.0225;-0.0198;0.1785;-4.1374;0.9313;-0.8397;26.1771;
24.139;1.0154;-0.0215;0.1694;-4.5038;0.7176;-0.8931;26.0829;
24.159;1.0220;-0.0161;0.1768;-4.2977;1.0305;-0.7939;26.1771;
24.179;1.0137;-0.0215;0.1726;-4.2061;0.9542;-0.7328;26.1771;
24.200;1.0181;-0.0200;0.1716;-4.4656;0.8244;-0.8473;26.0829;
24.219;1.0217;-0.0183;0.1787;-4.0840;0.7710;-0.8397;26.0829;
24.239;1.0208;-0.0264;0.1748;-4.1450;0.8244;-0.8473;26.0829;
24.259;1.0173;-0.0149;0.1719;-4.1450;1.0153;-0.9389;25.9888;
24.279;1.0183;-0.0159;0.1689;-4.3359;0.8855;-0.9160;26.0829;
24.300;1.0234;-0.0251;0.1785;-4.3435;1.0687;-0.9237;26.0829;
24.319;1.0234;-0.0208;0.1729;-4.2672;0.9618;-0.8702;26.0829;
24.339;1.0156;-0.0212;0.1794;-4.1298;1.0458;-0.9313;26.0829;
24.359;1.0186;-0.0178;0.1750;-4.2290;1.0458;-0.8092;26.0829;
24.380;1.0151;-0.0144;0.1790;-4.2901;0.9237;-0.8626;26.0829;
24.400;1.0203;-0.0173;0.1692;-4.2519;0.9389;-0.7939;26.1771;
24.419;1.0220;-0.0151;0.1833;-4.0916;1.0000;-0.8168;26.1771;
24.439;1.0161;-0.0198;0.1782;-4.1832;1.0076;-0.8015;26.0829;
24.459;1.0166;-0.0217;0.1758;-4.2137;0.8321;-0.8626;26.0829;
24.479;1.0239;-0.0188;0.1792;-4.1221;1.0840;-0.8321;25.9888;
24.500;1.0200;-0.0229;0.1772;-4.3511;1.1221;-0.8779;26.1771;
24.519;1.0168;-0.0227;0.1775;-4.2290;0.9466;-0.9008;26.1771;
24.539;1.0254;-0.0203;0.1707;-4.0687;0.9542;-0.9466;26.0829;
24.559;1.0247;-0.0215;0.1797;-4.3588;0.9924;-1.0153;26.0829;
24.579;1.0234;-0.0190;0.1748;-4.2977;0.9160;-0.7634;26.0829;
24.599;1.0154;-0.0220;0.1746;-4.0992;0.9542;-0.8702;26.1771;
24.619;1.0205;-0.0176;0.1765;-4.2061;0.9389;-0.7863;26.0829;
24.639;1.0249;-0.0237;0.1812;-4.3053;1.0992;-0.9084;26.1771;
24.659;1.0142;-0.0193;0.1719;-4.2672;1.0763;-0.8779;26.1771;
24.680;1.0173;-0.0188;0.1692;-4.2366;0.9084;-0.7557;26.1771;
24.700;1.0239;-0.0225;0.1711;-4.3817;0.9847;-0.9237;26.0829;
24.719;1.0261;-0.0222;0.1721;-4.2901;0.9466;-0.7557;26.1771;
24.739;1.0239;-0.0164;0.1711;-4.4504;1.0153;-0.7863;26.0829;
24.759;1.0234;-0.0173;0.1787;-4.2824;0.9771;-0.7252;26.0829;
24.780;1.0193;-0.0208;0.1804;-4.3206;0.8168;-0.7176;26.1771;
24.800;1.0208;-0.0178;0.1782;-4.1832;0.9618;-0.8244;26.1771;
24.819;1.0222;-0.0269;0.1729;-4.2214;1.0992;-0.8015;26.0829;
24.839;1.0205;-0.0181;0.1670;-4.2519;0.8321;-0.9695;26.1771;
24.859;1.0193;-0.0203;0.1731;-4.1985;0.9618;-0.8855;26.0829;
24.880;1.0208;-0.0183;0.1702;-4.3893;0.9695;-0.7634;26.0829;
24.900;1.0188;-0.0220;0.1724;-4.2214;1.0000;-0.8321;26.0829;
24.919;1.0217;-0.0200;0.1738;-4.1145;0.8550;-0.8397;26.0829;
24.939;1.0225;-0.0168;0.1809;-4.3359;1.0153;-0.9389;26.0829;
24.959;1.0193;-0.0232;0.1775;-4.2366;0.8473;-0.8397;26.0829;
24.979;1.0122;-0.0229;0.1736;-4.0687;0.7405;-0.9542;25.9888;
24.999;1.0220;-0.0225;0.1736;-4.2824;1.0916;-0.8168;26.0829;
25.019;1.0205;-0.0188;0.1821;-4.1069;1.0076;-0.9389;26.1771;
25.039;1.0249;-0.0208;0.1794;-4.2901;1.0382;-0.8779;26.0829;
25.059;1.0208;-0.0198;0.1741;-4.4733;1.0305;-0.8855;26.0829;
25.079;1.0161;-0.0181;0.1648;-4.1908;0.9389;-0.9618;26.0829;
25.099;1.0225;-0.0232;0.1736;-4.1679;0.8779;-0.8931;26.0829;
25.120;1.0198;-0.0220;0.1782;-4.1832;1.0534;-0.9313;26.0829;
25.139;1.0198;-0.0232;0.1782;-4.2443;0.9313;-0.6947;26.1771;
25.159;1.0225;-0.0176;0.1716;-4.3359;0.9008;-0.8550;26.0829;
25.179;1.0154;-0.0215;0.1821;-4.1985;1.0458;-0.8473;26.0829;
25.200;1.0227;-0.0164;0.1768;-4.2443;0.8015;-0.9389;26.0829;
25.219;1.0256;-0.0205;0.1812;-4.2061;0.9466;-0.8702;26.0829;
25.239;1.0222;-0.0178;0.1775;-4.2901;1.0763;-0.8931;26.0829;
25.259;1.0176;-0.0166;0.1685;-4.3130;0.9008;-0.9542;26.1771;
25.279;1.0188;-0.0244;0.1689;-4.2519;0.9008;-0.7557;26.0829;
25.300;1.0144;-0.0239;0.1807;-4.3664;0.8855;-0.8550;26.0829;
25.319;1.0208;-0.0234;0.1726;-4.4198;1.0153;-0.8473;26.0829;
25.339;1.0166;-0.0195;0.1702;-4.3817;1.0916;-0.6489;26.0829;
25.359;1.0198;-0.0183;0.1743;-4.2443;0.9618;-0.8321;26.0829;
25.379;1.0210;-0.0203;0.1809;-4.3664;0.9847;-0.8244;26.0829;
25.400;1.0168;-0.0154;0.1709;-4.1756;0.9695;-0.8397;25.9888;
25.419;1.0212;-0.0242;0.1760;-4.2443;0.9466;-0.9008;26.0829;
25.439;1.0212;-0.0256;0.1772;-4.2595;0.9237;-0.8168;26.1771;
25.459;1.0166;-0.0210;0.1750;-4.1221;0.9160;-0.8092;26.0829;
25.479;1.0193;-0.0229;0.1719;-4.0763;0.9313;-0.8931;26.0829;
25.500;1.0171;-0.0225;0.1758;-4.4275;0.9771;-0.7863;26.0829;
25.519;1.0183;-0.0142;0.1709;-4.0840;1.0763;-0.8473;26.0829;
25.539;1.0210;-0.0171;0.1760;-4.1985;1.0687;-0.8550;26.0829;
25.559;1.0251;-0.0212;0.1787;-4.3588;1.0382;-0.9695;25.9888;
25.579;1.0186;-0.0115;0.1697;-4.2137;0.8779;-0.7939;26.0829;
25.599;1.0203;-0.0229;0.1753;-4.0687;0.9924;-0.8321;26.1771;
25.619;1.0200;-0.0203;0.1775;-4.3206;0.8168;-0.8244;26.0829;
25.639;1.0178;-0.0215;0.1765;-4.3359;1.0916;-0.6718;26.1771;
25.659;1.0261;-0.0198;0.1833;-4.0992;0.9313;-0.8779;26.0829;
25.679;1.0139;-0.0200;0.1826;-4.3740;0.9618;-0.7481;26.0829;
25.700;1.0222;-0.0193;0.1694;-4.2366;0.9542;-0.8168;26.0829;
25.719;1.0146;-0.0247;0.1794;-4.3435;1.0229;-0.8473;25.9888;
25.739;1.0227;-0.0186;0.1721;-4.1450;1.0687;-1.0153;26.0829;
25.759;1.0198;-0.0110;0.1716;-4.3053;0.9847;-0.7405;26.0829;
25.779;1.0205;-0.0234;0.1809;-4.1450;0.8931;-0.7328;26.0829;
25.799;1.0229;-0.0212;0.1714;-4.3053;0.9008;-0.7099;26.0829;
25.819;1.0210;-0.0215;0.1721;-4.3130;1.0916;-0.7863;26.1771;
25.839;1.0237;-0.0220;0.1753;-4.1908;1.0153;-0.8015;26.0829;
25.859;1.0215;-0.0210;0.1719;-4.2824;0.8168;-0.8626;26.0829;
25.879;1.0161;-0.0225;0.1743;-4.1832;0.9924;-0.7939;26.1771;
25.899;1.0225;-0.0181;0.1702;-4.2290;0.9771;-0.7710;26.1771;
25.920;1.0210;-0.0178;0.1702;-4.2519;1.0763;-0.8855;26.0829;
25.939;1.0237;-0.0212;0.1653;-4.2137;0.9618;-0.8092;26.1771;
25.959;1.0183;-0.0200;0.1689;-4.2290;1.0458;-0.9160;26.0829;
25.979;1.0142;-0.0203;0.1741;-4.4046;1.0153;-0.8702;26.0829;
25.999;1.0159;-0.0171;0.1812;-4.2748;0.8473;-0.8855;26.0829;
26.019;1.0203;-0.0215;0.1768;-4.2290;0.8779;-0.9542;26.1771;
26.039;1.0212;-0.0200;0.1726;-4.2748;0.9847;-0.7863;26.0829;
26.059;1.0210;-0.0244;0.1709;-4.3130;1.0458;-0.8015;26.0829;
26.079;1.0239;-0.0203;0.1763;-4.2214;0.9695;-0.7863;26.0829;
26.099;1.0190;-0.0168;0.1741;-4.1145;0.9618;-0.7634;26.0829;
26.119;1.0212;-0.0193;0.1765;-4.1756;0.7023;-0.9466;25.9888;
26.139;1.0212;-0.0198;0.1685;-4.2214;0.9771;-1.0076;26.0829;
26.159;1.0193;-0.0188;0.1680;-4.0687;0.9924;-0.9084;25.9888;
26.179;1.0186;-0.0188;0.1729;-4.0687;1.0382;-0.8168;26.0829;
26.199;1.0212;-0.0278;0.1746;-4.2595;0.9313;-0.8702;26.0829;
26.219;1.0229;-0.0212;0.1704;-4.2366;0.9847;-0.7481;26.0829;
26.239;1.0273;-0.0215;0.1753;-4.1756;1.0153;-0.8397;26.0829;
26.259;1.0161;-0.0168;0.1755;-4.1145;0.8702;-0.9542;26.0829;
26.279;1.0188;-0.0151;0.1750;-4.0840;1.1374;-0.8244;26.0829;
26.300;1.0181;-0.0244;0.1682;-4.3282;0.9847;-0.8168;26.0829;
26.319;1.0227;-0.0198;0.1663;-4.1221;0.9466;-0.8397;26.0829;
26.339;1.0198;-0.0193;0.1760;-4.1069;1.0305;-0.8550;26.1771;
26.359;1.0168;-0.0183;0.1721;-4.1908;1.0153;-0.7710;26.0829;
26.379;1.0176;-0.0183;0.1760;-4.3130;0.9847;-0.9389;26.0829;
26.399;1.0186;-0.0200;0.1726;-4.3053;0.8779;-0.7939;25.9888;
26.419;1.0183;-0.0190;0.1724;-4.2443;1.1985;-0.9847;26.1771;
26.439;1.0242;-0.0159;0.1733;-4.2901;1.0611;-0.8550;26.0829;
26.459;1.0254;-0.0203;0.1846;-4.1450;0.8550;-0.9160;26.0829;
26.479;1.0203;-0.0251;0.1689;-4.2366;1.1527;-0.8702;26.0829;
26.499;1.0225;-0.0225;0.1755;-4.3130;0.9313;-0.8244;26.0829;
26.519;1.0217;-0.0232;0.1772;-4.2290;1.1756;-0.8626;25.9888;
26.539;1.0208;-0.0181;0.1658;-4.2519;1.0305;-0.6794;26.1771;
26.559;1.0203;-0.0203;0.1770;-4.1985;1.0229;-0.9542;26.0829;
26.579;1.0203;-0.0181;0.1799;-4.3130;1.0076;-0.8092;26.0829;
26.599;1.0212;-0.0217;0.1816;-4.1985;1.0076;-0.7786;26.0829;
26.619;1.0234;-0.0188;0.1726;-4.3282;1.0076;-0.9313;26.1771;
26.639;1.0217;-0.0212;0.1741;-4.2214;0.9924;-0.8779;26.0829;
26.659;1.0117;-0.0269;0.1758;-4.1069;1.0000;-0.8779;26.0829;
26.679;1.0234;-0.0173;0.1738;-4.2672;0.9084;-0.8168;26.0829;
26.699;1.0173;-0.0244;0.1794;-4.1374;0.8855;-0.9389;26.1771;
26.719;1.0261;-0.0212;0.1729;-4.0763;1.1069;-0.8397;26.0829;
26.739;1.0156;-0.0237;0.1804;-4.2290;0.9771;-0.8702;26.0829;
26.759;1.0242;-0.0178;0.1768;-4.2824;1.0076;-0.8550;26.0829;
26.779;1.0203;-0.0198;0.1760;-4.2519;1.0305;-0.9313;26.0829;
26.799;1.0178;-0.0166;0.1704;-4.3740;0.9695;-0.8550;26.1771;
26.819;1.0190;-0.0142;0.1733;-4.2137;1.0305;-0.8855;26.1771;
26.839;1.0210;-0.0237;0.1638;-4.1374;0.9542;-0.8397;26.0829;
26.859;1.0183;-0.0198;0.1741;-4.2824;0.9695;-0.7481;26.0829;
26.879;1.0208;-0.0247;0.1782;-4.2366;1.0305;-0.8244;26.0829;
26.900;1.0186;-0.0212;0.1748;-4.2443;1.0458;-0.9542;26.0829;
26.919;1.0220;-0.0254;0.1680;-4.3282;0.8931;-0.8244;25.9888;
26.939;1.0229;-0.0225;0.1655;-4.1756;1.0611;-0.8244;26.1771;
26.959;1.0188;-0.0168;0.1799;-4.2519;1.0076;-0.8626;26.1771;
26.979;1.0229;-0.0208;0.1675;-4.2137;0.8931;-0.8244;26.0829;
26.999;1.0234;-0.0200;0.1860;-4.1832;0.9618;-0.8092;26.0829;
27.019;1.0188;-0.0239;0.1731;-4.0458;1.0763;-0.7939;25.9888;
27.039;1.0278;-0.0210;0.1787;-4.1527;1.0611;-0.7710;26.0829;
27.059;1.0168;-0.0247;0.1782;-4.2824;1.0534;-1.0076;26.0829;
27.079;1.0164;-0.0193;0.1692;-4.2748;0.9084;-0.9008;26.0829;
27.099;1.0188;-0.0225;0.1731;-4.1527;0.9847;-0.7939;26.0829;
27.119;1.0237;-0.0193;0.1750;-4.1221;1.0382;-0.6794;26.1771;
27.139;1.0195;-0.0247;0.1716;-4.1145;0.8550;-0.8015;25.9888;
27.159;1.0181;-0.0159;0.1768;-4.2061;1.0992;-0.8931;26.1771;
27.179;1.0203;-0.0203;0.1895;-4.1145;0.8779;-0.8473;26.1771;
27.200;1.0239;-0.0215;0.1743;-4.1527;0.8473;-0.9313;26.1771;
27.219;1.0168;-0.0239;0.1797;-4.3817;0.8550;-0.8321;26.0829;
27.239;1.0239;-0.0208;0.1758;-4.2443;0.9313;-0.8321;26.0829;
27.259;1.0188;-0.0220;0.1760;-4.1756;0.9771;-0.9389;25.9888;
27.279;1.0210;-0.0188;0.1748;-4.1374;0.9618;-0.7786;26.0829;
27.300;1.0217;-0.0208;0.1794;-4.3053;1.0076;-1.0076;26.0829;
27.319;1.0220;-0.0212;0.1677;-4.3130;0.9237;-0.8092;26.1771;
27.339;1.0254;-0.0227;0.1743;-4.2137;1.0534;-0.8397;26.1771;
27.359;1.0193;-0.0247;0.1716;-4.2595;1.0153;-0.8397;26.0829;
27.379;1.0217;-0.0166;0.1748;-4.3053;1.1832;-0.6947;26.0829;
27.399;1.0181;-0.0237;0.1746;-4.1374;0.8931;-0.8397;25.9888;
27.419;1.0234;-0.0198;0.1782;-4.2137;0.9008;-0.8626;26.0829;
27.439;1.0215;-0.0183;0.1768;-4.2901;1.0076;-0.9924;26.1771;
27.459;1.0261;-0.0198;0.1753;-4.2748;0.8550;-0.8168;26.0829;
27.479;1.0210;-0.0166;0.1707;-4.2901;0.8855;-0.8321;26.0829;
27.499;1.0190;-0.0205;0.1763;-4.1450;1.0534;-0.8015;26.0829;
27.519;1.0176;-0.0134;0.1763;-4.1450;1.0229;-0.8397;26.0829;
27.539;1.0212;-0.0239;0.1799;-4.4046;1.0153;-0.7481;26.0829;
27.559;1.0198;-0.0215;0.1763;-4.2977;0.9771;-0.9466;26.1771;
27.579;1.0237;-0.0195;0.1663;-4.1756;0.9618;-0.7939;26.0829;
27.600;1.0205;-0.0161;0.1721;-4.2672;0.7328;-0.7023;26.0829;
27.619;1.0208;-0.0173;0.1714;-4.3130;1.0916;-0.9695;26.0829;
27.639;1.0217;-0.0237;0.1746;-4.3053;0.8473;-0.8015;26.0829;
27.659;1.0195;-0.0232;0.1702;-4.1908;1.0000;-0.8550;25.9888;
27.679;1.0151;-0.0200;0.1804;-4.3206;0.8855;-0.7939;26.0829;
27.700;1.0212;-0.0193;0.1738;-4.2366;0.8473;-1.0229;25.9888;
27.719;1.0181;-0.0232;0.1663;-4.1221;1.0763;-0.7328;26.0829;
27.739;1.0176;-0.0203;0.1782;-4.3740;1.1527;-0.8092;25.9888;
27.759;1.0176;-0.0203;0.1724;-4.1679;0.7634;-0.7557;26.1771;
27.779;1.0173;-0.0208;0.1755;-4.3206;0.8473;-0.7328;26.0829;
27.800;1.0178;-0.0195;0.1616;-4.4046;0.8473;-0.9313;26.0829;
27.819;1.0227;-0.0239;0.1736;-4.1756;1.0229;-0.8092;26.0829;
27.839;1.0149;-0.0144;0.1658;-4.2519;1.1756;-0.9542;26.1771;
27.859;1.0190;-0.0115;0.1782;-4.3511;1.0000;-0.7863;26.0829;
27.879;1.0181;-0.0190;0.1785;-4.1908;0.8550;-0.9008;26.0829;
27.899;1.0205;-0.0151;0.1831;-4.1069;0.9542;-0.8092;26.1771;
27.919;1.0164;-0.0134;0.1631;-4.3511;0.9695;-0.7634;25.9888;
27.939;1.0176;-0.0225;0.1726;-4.2366;1.1603;-0.9084;26.1771;
27.959;1.0193;-0.0208;0.1772;-4.2977;1.0076;-0.7481;26.0829;
27.979;1.0227;-0.0222;0.1682;-4.3511;1.0229;-0.9466;26.0829;
27.999;1.0168;-0.0244;0.1697;-4.1450;0.9771;-0.6412;26.0829;
28.019;1.0171;-0.0225;0.1765;-4.2672;1.0763;-0.9466;26.1771;
28.039;1.0176;-0.0239;0.1733;-4.1832;0.7786;-0.7634;26.0829;
28.059;1.0227;-0.0254;0.1709;-4.2824;0.8702;-0.9237;26.1771;
28.079;1.0239;-0.0229;0.1814;-4.2519;0.9008;-0.8473;26.0829;
28.100;1.0205;-0.0234;0.1755;-4.3511;0.8779;-0.8779;26.1771;
28.119;1.0200;-0.0178;0.1846;-4.0382;1.0458;-0.8015;26.1771;
28.139;1.0122;-0.0203;0.1819;-4.1832;1.0458;-0.8244;25.9888;
28.159;1.0190;-0.0208;0.1689;-4.1527;0.8473;-1.0076;26.0829;
28.179;1.0176;-0.0205;0.1704;-4.3740;0.9389;-0.8550;26.0829;
28.200;1.0173;-0.0193;0.1707;-4.1603;0.9924;-0.8244;26.0829;
28.219;1.0205;-0.0234;0.1794;-4.2443;0.9389;-0.9771;26.0829;
28.239;1.0198;-0.0208;0.1782;-4.2748;0.8626;-0.8931;26.1771;
28.259;1.0146;-0.0239;0.1694;-4.1374;0.9084;-0.8931;26.1771;
28.279;1.0195;-0.0203;0.1746;-4.1908;1.0916;-0.8473;26.0829;
28.300;1.0127;-0.0193;0.1716;-4.2977;0.8931;-0.9542;26.0829;
28.319;1.0229;-0.0134;0.1709;-4.1908;0.9847;-0.8550;26.1771;
28.339;1.0205;-0.0186;0.1768;-4.1298;1.0000;-0.9924;26.0829;
28.359;1.0205;-0.0212;0.1719;-4.2443;0.9618;-0.9771;26.0829;
28.379;1.0205;-0.0205;0.1755;-4.1908;0.9695;-0.8015;26.0829;
28.400;1.0154;-0.0186;0.1790;-4.2977;1.0382;-0.9237;26.0829;
28.419;1.0234;-0.0212;0.1790;-4.2901;0.9389;-0.6336;26.0829;
28.439;1.0269;-0.0227;0.1743;-4.2519;0.9695;-0.7786;26.0829;
28.459;1.0239;-0.0229;0.1755;-4.1832;0.8779;-0.8626;25.9888;
28.479;1.0210;-0.0217;0.1785;-4.2748;1.0687;-0.9313;26.0829;
28.499;1.0237;-0.0203;0.1777;-4.3359;0.8855;-0.9008;26.1771;
28.519;1.0186;-0.0222;0.1741;-4.3130;1.0305;-0.9008;26.0829;
28.539;1.0261;-0.0181;0.1721;-4.2290;1.0000;-0.9924;26.0829;
28.559;1.0208;-0.0229;0.1753;-4.2443;1.0382;-0.7939;26.1771;
28.579;1.0225;-0.0210;0.1785;-4.2595;0.9084;-0.6718;26.0829;
28.599;1.0173;-0.0210;0.1733;-4.3053;0.9466;-0.8550;26.0829;
28.619;1.0222;-0.0186;0.1704;-4.3206;0.8702;-1.0763;26.0829;
28.639;1.0225;-0.0222;0.1750;-4.0840;1.0687;-0.8168;25.9888;
28.659;1.0242;-0.0198;0.1741;-4.0992;1.0229;-0.8931;26.0829;
28.679;1.0225;-0.0195;0.1709;-4.2901;0.9466;-0.7481;26.0829;
28.700;1.0181;-0.0232;0.1721;-4.1298;1.0840;-0.7557;26.0829;
28.719;1.0205;-0.0200;0.1799;-4.0840;1.0916;-0.7557;26.1771;
28.739;1.0205;-0.0168;0.1729;-4.4962;0.8092;-0.7252;26.0829;
28.759;1.0173;-0.0159;0.1729;-4.1603;0.8321;-0.8015;26.0829;
28.779;1.0237;-0.0190;0.1726;-4.1756;0.9695;-0.9084;26.1771;
28.800;1.0225;-0.0247;0.1768;-4.4046;0.9847;-0.9695;26.0829;
28.819;1.0183;-0.0271;0.1729;-4.2595;1.0534;-0.8168;26.0829;
28.839;1.0210;-0.0212;0.1821;-4.3130;0.9771;-0.9924;26.0829;
28.859;1.0217;-0.0208;0.1780;-4.3664;0.9771;-0.8931;26.0829;
28.879;1.0256;-0.0225;0.1772;-4.2824;0.7176;-0.8244;26.0829;
28.899;1.0200;-0.0261;0.1665;-4.1832;0.9618;-0.9237;26.0829;
28.919;1.0217;-0.0193;0.1736;-4.3130;1.0305;-0.7023;26.1771;
28.939;1.0176;-0.0227;0.1785;-4.1832;0.9466;-0.9008;26.0829;
28.959;1.0239;-0.0249;0.1772;-4.1298;0.9695;-0.8473;26.1771;
28.979;1.0215;-0.0259;0.1799;-4.4122;1.1145;-0.9160;25.9888;
28.999;1.0249;-0.0220;0.1755;-4.2214;1.0000;-0.9466;26.1771;
29.019;1.0183;-0.0229;0.1775;-4.1756;0.9237;-0.9771;25.9888;
29.039;1.0239;-0.0217;0.1667;-4.2214;0.8702;-0.7786;26.0829;
29.059;1.0193;-0.0234;0.1782;-4.2824;0.8855;-0.8397;25.9888;
29.079;1.0183;-0.0188;0.1750;-4.2137;1.0076;-0.9389;26.0829;
29.099;1.0156;-0.0227;0.1753;-4.4122;0.9618;-0.7863;26.0829;
29.119;1.0227;-0.0239;0.1733;-4.1450;0.9389;-0.8321;26.0829;
29.139;1.0186;-0.0217;0.1709;-4.3206;1.0534;-0.8626;26.0829;
29.159;1.0164;-0.0193;0.1726;-4.2824;0.7710;-0.7634;26.1771;
29.179;1.0168;-0.0217;0.1726;-4.2901;0.9771;-0.7099;26.0829;
29.199;1.0225;-0.0215;0.1707;-4.2290;0.9542;-0.7939;26.0829;
29.219;1.0212;-0.0166;0.1824;-4.3588;0.9847;-0.8244;26.0829;
29.239;1.0159;-0.0188;0.1785;-4.2748;1.0611;-0.7863;26.0829;
29.259;1.0151;-0.0198;0.1777;-4.2290;1.0458;-0.9847;25.9888;
29.279;1.0247;-0.0205;0.1741;-4.1985;0.9771;-0.7099;26.0829;
29.299;1.0208;-0.0247;0.1704;-4.3664;1.0611;-1.0076;26.0829;
29.319;1.0259;-0.0229;0.1816;-4.0534;1.0534;-0.6718;26.0829;
29.339;1.0200;-0.0171;0.1672;-4.1756;1.0153;-0.8855;25.9888;
29.359;1.0178;-0.0232;0.1746;-4.2443;0.8702;-0.8244;26.0829;
29.379;1.0159;-0.0203;0.1814;-4.3664;0.9618;-0.7481;26.1771;
29.399;1.0212;-0.0249;0.1768;-4.1298;0.8397;-0.8473;26.0829;
29.419;1.0188;-0.0217;0.1785;-4.2977;1.1603;-0.6260;26.0829;
29.439;1.0178;-0.0208;0.1729;-4.2977;0.8626;-0.8397;25.9888;
29.459;1.0183;-0.0195;0.1680;-4.3206;0.9237;-0.8244;26.0829;
29.479;1.0171;-0.0176;0.1768;-4.2977;1.0076;-0.8244;26.0829;
29.499;1.0205;-0.0227;0.1807;-4.3282;1.0611;-0.8779;26.0829;
29.519;1.0154;-0.0229;0.1663;-4.1756;1.0534;-0.8473;26.0829;
29.539;1.0166;-0.0159;0.1799;-4.3588;0.8550;-0.9618;26.0829;
29.559;1.0220;-0.0229;0.1763;-4.1298;1.0534;-0.7710;26.0829;
29.579;1.0261;-0.0193;0.1721;-4.1527;1.0458;-0.9466;26.0829;
29.600;1.0234;-0.0239;0.1704;-4.2977;1.0305;-0.6870;26.0829;
29.619;1.0186;-0.0261;0.1821;-4.1450;0.8550;-0.9695;25.9888;
29.639;1.0239;-0.0254;0.1775;-4.2519;1.0458;-0.7557;26.0829;
29.659;1.0205;-0.0208;0.1831;-4.4122;1.0534;-0.8473;26.0829;
29.679;1.0193;-0.0198;0.1809;-4.2366;0.9542;-0.8092;26.0829;
29.699;1.0178;-0.0190;0.1768;-4.2595;0.9771;-0.8321;26.0829;
29.719;1.0269;-0.0232;0.1794;-4.0305;1.0153;-0.7023;26.0829;
29.739;1.0249;-0.0181;0.1711;-4.1221;1.0076;-0.8473;26.1771;
29.759;1.0222;-0.0256;0.1719;-4.1756;0.9237;-0.8473;26.0829;
29.779;1.0203;-0.0188;0.1741;-4.1527;0.9466;-0.9466;26.0829;
29.799;1.0195;-0.0215;0.1736;-4.3206;0.8397;-0.9466;25.9888;
29.819;1.0198;-0.0239;0.1716;-4.1756;1.0000;-0.6870;26.0829;
29.839;1.0215;-0.0212;0.1819;-4.0076;1.0229;-0.8626;25.9888;
29.859;1.0181;-0.0176;0.1768;-4.3282;0.9542;-0.8473;26.1771;
29.879;1.0186;-0.0183;0.1741;-3.9847;0.9313;-0.8321;26.0829;
29.899;1.0259;-0.0181;0.1755;-4.1298;1.0992;-0.8015;26.0829;
29.919;1.0183;-0.0181;0.1711;-4.4122;0.8931;-0.9008;25.9888;
29.939;1.0190;-0.0212;0.1785;-4.0763;0.9771;-0.9695;26.0829;
29.959;1.0125;-0.0171;0.1782;-4.2977;0.8244;-0.8015;26.0829;
29.979;1.0222;-0.0166;0.1685;-4.3435;1.0076;-0.9389;26.0829;
29.999;1.0198;-0.0229;0.1724;-4.3664;1.0534;-0.7939;25.9888;
30.019;1.0198;-0.0200;0.1807;-4.2214;0.8015;-0.9542;25.9888;
30.039;1.0283;-0.0232;0.1775;-4.2977;1.0916;-0.9466;26.0829;
30.059;1.0198;-0.0276;0.1702;-4.0992;1.0076;-0.7939;25.9888;
30.079;1.0242;-0.0269;0.1738;-4.0611;0.9695;-0.7252;26.0829;
30.099;1.0176;-0.0149;0.1704;-4.2595;1.0000;-0.8931;26.0829;
30.119;1.0161;-0.0161;0.1787;-4.2061;0.8779;-0.8015;26.1771;
30.139;1.0208;-0.0234;0.1758;-4.3130;0.9771;-0.7634;26.0829;
30.159;1.0229;-0.0178;0.1799;-4.2595;0.9924;-1.0076;26.0829;
30.179;1.0225;-0.0225;0.1790;-4.1450;0.8168;-0.9237;26.0829;
30.199;1.0161;-0.0298;0.1819;-4.1450;0.9313;-0.8473;25.9888;
30.219;1.0222;-0.0220;0.1719;-4.4046;0.9237;-0.9160;25.9888;
30.239;1.0168;-0.0173;0.1748;-4.1679;1.0153;-0.8473;26.0829;
30.259;1.0247;-0.0176;0.1738;-4.1298;0.9160;-0.9313;25.9888;
30.279;1.0142;-0.0227;0.1802;-4.1679;0.9771;-0.7786;26.0829;
30.299;1.0242;-0.0205;0.1748;-4.2214;1.0153;-0.8931;26.0829;
30.319;1.0266;-0.0193;0.1716;-4.2901;0.8931;-0.7634;26.0829;
30.339;1.0203;-0.0171;0.1731;-4.1985;0.9695;-0.8931;26.0829;
30.359;1.0198;-0.0215;0.1753;-4.2290;1.0458;-0.8321;25.9888;
30.379;1.0183;-0.0198;0.1714;-4.0305;1.1603;-0.9389;25.9888;
30.399;1.0212;-0.0229;0.1785;-4.2290;1.0305;-0.9313;26.1771;
30.419;1.0242;-0.0232;0.1763;-4.3130;1.0840;-0.7557;25.9888;
30.439;1.0178;-0.0200;0.1787;-4.0992;0.9466;-0.8550;25.9888;
30.459;1.0171;-0.0188;0.1772;-4.2519;0.9771;-0.7099;26.0829;
30.479;1.0195;-0.0195;0.1802;-4.1145;1.0458;-0.6947;26.0829;
30.499;1.0208;-0.0237;0.1855;-4.2519;0.8397;-0.6565;26.0829;
30.519;1.0159;-0.0173;0.1777;-4.1679;1.0153;-0.7481;26.0829;
30.539;1.0259;-0.0215;0.1594;-4.2519;1.0076;-0.7863;26.0829;
30.559;1.0203;-0.0203;0.1824;-4.2443;1.0534;-0.6870;25.9888;
30.579;1.0247;-0.0225;0.1689;-4.1145;1.0153;-0.9695;25.9888;
30.600;1.0149;-0.0198;0.1709;-4.2901;0.9008;-0.8168;25.9888;
30.619;1.0237;-0.0237;0.1709;-4.1527;0.9618;-0.7786;26.0829;
30.639;1.0212;-0.0220;0.1724;-4.2443;0.9160;-0.7405;25.9888;
30.659;1.0215;-0.0193;0.1777;-4.1756;1.1679;-0.9160;25.9888;
30.679;1.0195;-0.0193;0.1760;-4.1298;0.8779;-0.7710;25.9888;
30.699;1.0200;-0.0281;0.1724;-4.0458;0.9084;-0.9160;25.9888;
30.719;1.0210;-0.0166;0.1741;-4.2290;1.1145;-0.8931;25.9888;
30.739;1.0244;-0.0173;0.1738;-4.2595;0.8855;-0.7099;26.1771;
30.759;1.0225;-0.0183;0.1680;-4.1221;0.9084;-0.8015;26.0829;
30.779;1.0239;-0.0225;0.1707;-4.1908;1.0000;-0.8092;26.0829;
30.799;1.0146;-0.0220;0.1807;-4.4046;0.8626;-0.8244;26.0829;
30.819;1.0239;-0.0249;0.1694;-4.1527;0.9542;-0.8702;25.9888;
30.839;1.0227;-0.0208;0.1707;-4.3969;0.9695;-0.7863;26.0829;
30.859;1.0190;-0.0232;0.1753;-4.1756;0.9466;-0.8244;26.0829;
30.879;1.0200;-0.0198;0.1743;-4.2443;1.0687;-0.6870;26.0829;
30.899;1.0129;-0.0227;0.1746;-4.3130;1.0916;-0.8931;26.0829;
30.919;1.0222;-0.0212;0.1729;-4.1985;1.0763;-0.9084;26.0829;
30.939;1.0161;-0.0181;0.1702;-4.2595;0.9008;-0.8473;26.0829;
30.959;1.0176;-0.0205;0.1646;-4.0840;1.0458;-0.8321;25.9888;
30.979;1.0217;-0.0149;0.1790;-4.2214;1.0000;-0.7481;25.9888;
30.999;1.0198;-0.0227;0.1741;-4.2595;1.0840;-0.7099;26.0829;
31.019;1.0178;-0.0164;0.1689;-4.0611;1.1298;-0.7939;26.0829;
31.039;1.0227;-0.0225;0.1755;-4.2366;1.1450;-0.9313;26.0829;
31.059;1.0229;-0.0244;0.1780;-4.1756;1.0305;-0.7634;26.0829;
31.079;1.0239;-0.0261;0.1721;-4.2824;0.9618;-0.9084;26.0829;
31.099;1.0173;-0.0234;0.1755;-4.1221;1.1374;-0.9313;25.9888;
31.119;1.0217;-0.0234;0.1760;-4.1221;1.0611;-0.9160;25.9888;
31.139;1.0198;-0.0203;0.1711;-4.1145;1.0305;-0.8855;25.9888;
31.159;1.0244;-0.0269;0.1797;-4.3664;0.9466;-0.7939;26.0829;
31.179;1.0203;-0.0222;0.1680;-4.1756;1.1221;-0.9466;26.0829;
31.199;1.0215;-0.0151;0.1758;-4.1603;0.9924;-0.8702;25.9888;
31.219;1.0232;-0.0190;0.1763;-4.4427;1.0611;-0.7099;26.0829;
31.239;1.0117;-0.0164;0.1704;-4.2824;0.9695;-0.7481;26.0829;
31.259;1.0215;-0.0200;0.1809;-3.9695;1.0458;-0.7939;26.0829;
31.279;1.0208;-0.0208;0.1775;-4.2214;1.1145;-0.8473;26.0829;
31.299;1.0212;-0.0293;0.1755;-4.1374;1.2443;-0.8473;25.9888;
31.319;1.0205;-0.0193;0.1707;-4.0534;0.9618;-0.9924;25.9888;
31.339;1.0237;-0.0305;0.1758;-4.2290;1.0305;-0.7863;25.9888;
31.359;1.0251;-0.0156;0.1755;-4.2977;1.0153;-0.8015;26.0829;
31.379;1.0234;-0.0249;0.1714;-4.2061;0.8931;-0.9466;26.0829;
31.399;1.0186;-0.0249;0.1790;-4.2290;0.8931;-0.9313;26.0829;
31.419;1.0251;-0.0244;0.1804;-4.0840;0.9847;-0.8931;26.0829;
31.439;1.0256;-0.0151;0.1736;-4.1450;0.8702;-0.8855;25.9888;
31.459;1.0212;-0.0225;0.1646;-4.2519;0.8626;-0.9924;25.9888;
31.479;1.0190;-0.0220;0.1726;-4.3053;1.0763;-0.8092;25.9888;
31.499;1.0256;-0.0168;0.1797;-4.2748;0.9618;-0.9466;26.0829;
31.519;1.0159;-0.0239;0.1780;-4.2977;1.1756;-0.7786;26.0829;
31.539;1.0198;-0.0151;0.1741;-4.3817;0.9695;-0.9847;26.0829;
31.559;1.0229;-0.0190;0.1741;-4.0763;0.9237;-0.8473;25.9888;
31.579;1.0203;-0.0161;0.1819;-4.2061;0.9695;-0.9618;25.9888;
31.599;1.0205;-0.0256;0.1692;-4.3435;1.0076;-0.8855;25.9888;
31.619;1.0203;-0.0220;0.1721;-4.1221;0.9847;-0.8168;26.0829;
31.639;1.0227;-0.0215;0.1782;-4.1527;0.9695;-0.7786;26.0829;
31.659;1.0176;-0.0144;0.1692;-4.2061;0.9695;-0.7405;26.0829;
31.679;1.0154;-0.0220;0.1729;-4.2137;1.0305;-1.0763;26.0829;
31.699;1.0198;-0.0190;0.1777;-4.1145;1.0687;-0.9008;26.0829;
31.719;1.0215;-0.0293;0.1736;-4.1374;0.9466;-0.6641;26.1771;
31.739;1.0200;-0.0195;0.1707;-4.1374;1.0611;-0.8244;26.0829;
31.759;1.0225;-0.0164;0.1743;-4.1985;0.9084;-0.8855;25.9888;
31.779;1.0183;-0.0203;0.1775;-4.3817;0.9771;-0.9618;26.0829;
31.799;1.0164;-0.0217;0.1733;-4.3130;1.0611;-0.8779;26.0829;
31.819;1.0212;-0.0178;0.1775;-4.2824;0.9389;-0.7710;25.8947;
31.839;1.0173;-0.0239;0.1677;-4.2672;0.9466;-0.7557;26.0829;
31.859;1.0256;-0.0176;0.1785;-4.1908;0.9084;-0.8168;25.9888;
31.879;1.0149;-0.0227;0.1814;-4.1985;0.9466;-0.8931;26.0829;
31.899;1.0210;-0.0173;0.1719;-4.2366;0.9695;-0.7863;26.0829;
31.919;1.0208;-0.0203;0.1736;-4.2214;0.9771;-0.8550;26.0829;
31.939;1.0229;-0.0205;0.1729;-4.1603;0.9542;-0.8931;26.0829;
31.959;1.0203;-0.0212;0.1829;-4.2595;0.8626;-0.9313;25.9888;
31.979;1.0220;-0.0229;0.1726;-4.4198;1.0305;-0.7557;26.0829;
31.999;1.0244;-0.0239;0.1763;-4.0916;1.0458;-0.9695;26.0829;
32.019;1.0183;-0.0195;0.1758;-4.2443;1.0382;-0.7023;26.0829;
32.039;1.0200;-0.0195;0.1741;-4.2290;1.0534;-0.8473;26.0829;
32.059;1.0208;-0.0210;0.1702;-4.2519;1.0687;-0.8931;26.0829;
32.079;1.0273;-0.0188;0.1777;-4.1450;0.9237;-0.7863;26.0829;
32.099;1.0146;-0.0183;0.1687;-4.1145;0.8855;-1.0153;26.0829;
32.119;1.0176;-0.0269;0.1677;-4.1756;0.9160;-0.7939;26.0829;
32.139;1.0205;-0.0220;0.1716;-4.0611;1.0611;-0.9924;26.1771;
32.159;1.0156;-0.0205;0.1775;-4.2137;0.9389;-0.7023;26.1771;
32.179;1.0181;-0.0203;0.1863;-4.1069;0.9084;-0.9160;26.0829;
32.199;1.0190;-0.0171;0.1755;-4.2824;0.8626;-0.7863;26.0829;
32.219;1.0149;-0.0247;0.1758;-4.2748;1.0458;-0.9542;25.9888;
32.239;1.0203;-0.0166;0.1682;-4.2595;0.9313;-0.8626;26.0829;
32.259;1.0229;-0.0171;0.1792;-4.1908;1.0840;-0.9466;25.9888;
32.279;1.0203;-0.0186;0.1807;-4.1832;1.0916;-0.8931;26.0829;
32.299;1.0200;-0.0283;0.1665;-4.2366;1.0992;-0.8626;26.0829;
32.319;1.0261;-0.0222;0.1738;-4.3664;1.0763;-0.7939;26.1771;
32.339;1.0251;-0.0210;0.1768;-4.1832;1.0153;-0.8015;26.0829;
32.359;1.0127;-0.0171;0.1675;-4.2137;1.1527;-0.9008;26.0829;
32.379;1.0229;-0.0225;0.1721;-4.1679;1.0000;-0.7786;26.0829;
32.399;1.0176;-0.0217;0.1768;-4.3893;0.9847;-0.9160;25.9888;
32.419;1.0212;-0.0176;0.1807;-4.2290;0.9466;-0.8550;26.0829;
32.439;1.0225;-0.0198;0.1660;-4.1450;0.9847;-0.9008;26.0829;
32.459;1.0193;-0.0220;0.1748;-4.1450;0.9542;-0.8321;26.0829;
32.479;1.0178;-0.0239;0.1812;-4.1374;0.9160;-0.5954;25.9888;
32.499;1.0190;-0.0200;0.1643;-4.1908;0.8779;-0.8015;26.0829;
32.519;1.0251;-0.0217;0.1697;-4.2443;0.9771;-0.9008;26.0829;
32.539;1.0132;-0.0195;0.1748;-4.2290;1.0916;-0.8702;25.9888;
32.559;1.0139;-0.0181;0.1709;-4.2366;0.9466;-0.8321;25.9888;
32.579;1.0208;-0.0208;0.1716;-4.1298;0.9466;-0.7099;25.9888;
32.599;1.0269;-0.0239;0.1790;-4.3053;0.8168;-0.8702;26.0829;
32.619;1.0293;-0.0198;0.1694;-4.0763;0.8473;-0.8931;25.9888;
32.639;1.0203;-0.0159;0.1763;-4.1756;0.9313;-0.9313;26.0829;
32.659;1.0154;-0.0259;0.1697;-4.1908;1.0534;-0.6489;25.9888;
32.679;1.0205;-0.0227;0.1746;-4.1985;1.1374;-0.9237;26.0829;
32.699;1.0212;-0.0232;0.1704;-4.2137;0.8855;-0.8855;26.0829;
32.719;1.0203;-0.0190;0.1760;-4.1603;0.8702;-0.8092;26.0829;
32.739;1.0239;-0.0205;0.1704;-4.3130;0.8702;-0.7786;26.0829;
32.759;1.0215;-0.0256;0.1763;-4.1298;1.0153;-0.8015;26.0829;
32.779;1.0181;-0.0229;0.1807;-4.3130;1.1450;-0.9542;26.0829;
32.799;1.0239;-0.0271;0.1758;-4.1298;0.9466;-0.8015;25.9888;
32.819;1.0198;-0.0239;0.1694;-4.2443;0.8244;-0.8321;26.0829;
32.839;1.0244;-0.0210;0.1794;-4.2595;0.9771;-0.8397;25.9888;
32.859;1.0188;-0.0251;0.1794;-4.1527;0.8397;-0.8626;26.0829;
32.879;1.0188;-0.0193;0.1736;-4.3130;1.0611;-0.9466;26.0829;
32.899;1.0222;-0.0222;0.1672;-4.4046;1.0229;-0.7863;26.0829;
32.919;1.0266;-0.0208;0.1760;-4.1527;1.0382;-0.8779;26.0829;
32.939;1.0212;-0.0198;0.1741;-4.2290;0.8779;-0.8321;25.9888;
32.959;1.0232;-0.0210;0.1750;-4.2595;1.1832;-0.8321;26.0829;
32.979;1.0234;-0.0181;0.1733;-4.1985;1.0153;-0.6489;25.9888;
32.999;1.0200;-0.0220;0.1799;-4.2901;0.8702;-0.9084;25.9888;
33.019;1.0198;-0.0171;0.1670;-4.1221;1.1450;-0.7557;26.0829;
33.039;1.0208;-0.0198;0.1760;-4.2595;0.9389;-0.7176;25.9888;
33.059;1.0195;-0.0234;0.1809;-4.1450;0.8244;-0.8244;25.9888;
33.079;1.0195;-0.0220;0.1772;-4.4122;0.8550;-0.9542;26.0829;
33.099;1.0156;-0.0212;0.1782;-4.2595;1.0382;-0.8473;26.0829;
33.119;1.0251;-0.0178;0.1765;-4.1985;1.0992;-0.7710;26.0829;
33.139;1.0171;-0.0156;0.1670;-4.2901;0.8855;-0.9389;26.0829;
33.159;1.0186;-0.0234;0.1782;-4.2595;1.1985;-0.7099;25.9888;
33.179;1.0220;-0.0178;0.1780;-4.0763;0.9771;-0.8855;26.0829;
33.199;1.0183;-0.0229;0.1729;-4.3359;1.0000;-0.6641;25.9888;
33.219;1.0210;-0.0210;0.1638;-4.3817;0.9466;-0.7786;26.0829;
33.239;1.0244;-0.0234;0.1699;-4.2061;0.8473;-0.7481;25.9888;
33.259;1.0198;-0.0256;0.1755;-4.1679;1.0153;-0.7557;26.0829;
33.279;1.0247;-0.0229;0.1738;-4.2901;0.8092;-0.8168;25.8947;
33.299;1.0183;-0.0176;0.1768;-4.0534;1.0687;-0.7252;25.9888;
33.319;1.0151;-0.0151;0.1748;-4.0611;1.0534;-0.8626;25.9888;
33.339;1.0208;-0.0134;0.1763;-4.2366;0.9466;-0.7786;26.0829;
33.359;1.0168;-0.0261;0.1733;-4.2824;0.9008;-0.8702;25.9888;
33.379;1.0181;-0.0190;0.1726;-4.2901;1.0076;-1.0992;26.0829;
33.399;1.0205;-0.0251;0.1743;-4.3359;0.8397;-0.7557;25.9888;
33.419;1.0159;-0.0225;0.1794;-4.3969;1.0687;-0.8244;25.9888;
33.439;1.0203;-0.0203;0.1836;-4.4198;1.0229;-0.7099;25.9888;
33.459;1.0256;-0.0198;0.1731;-4.2672;0.8473;-0.9771;25.9888;
33.479;1.0186;-0.0259;0.1741;-4.1985;0.7481;-0.7405;25.9888;
33.499;1.0256;-0.0193;0.1838;-4.1374;0.8931;-0.8855;26.0829;
33.519;1.0232;-0.0181;0.1758;-4.1756;1.1527;-0.8779;25.9888;
33.539;1.0217;-0.0212;0.1780;-4.2748;1.0763;-0.7252;26.0829;
33.559;1.0205;-0.0215;0.1821;-4.2824;1.0611;-0.9466;26.0829;
33.579;1.0208;-0.0203;0.1780;-4.1679;1.0687;-0.8550;26.0829;
33.599;1.0227;-0.0178;0.1770;-4.2748;0.8626;-0.7481;26.0829;
33.619;1.0276;-0.0171;0.1782;-4.3969;0.8779;-0.8015;25.9888;
33.639;1.0139;-0.0205;0.1675;-4.1985;0.7710;-0.8168;26.0829;
33.659;1.0208;-0.0212;0.1743;-4.2748;0.9695;-0.6641;26.0829;
33.679;1.0220;-0.0256;0.1794;-4.2672;0.8626;-0.7557;26.0829;
33.699;1.0237;-0.0195;0.1726;-4.2366;1.0611;-0.9618;26.0829;
33.719;1.0195;-0.0232;0.1758;-4.2061;0.8931;-1.0000;26.0829;
33.739;1.0208;-0.0166;0.1724;-4.0458;1.0916;-0.8931;25.9888;
33.759;1.0183;-0.0200;0.1675;-4.3740;0.9008;-0.7481;26.0829;
33.779;1.0183;-0.0234;0.1794;-4.1756;0.9618;-0.8779;25.9888;
33.799;1.0176;-0.0210;0.1755;-4.2748;1.0458;-0.9618;26.0829;
33.819;1.0144;-0.0232;0.1719;-4.2214;1.0382;-0.9160;26.1771;
33.839;1.0278;-0.0205;0.1780;-4.3817;0.9924;-0.6947;26.0829;
33.859;1.0198;-0.0164;0.1721;-4.1908;1.0534;-0.8092;25.9888;
33.879;1.0186;-0.0264;0.1753;-4.2290;1.1832;-0.8092;26.0829;
33.899;1.0137;-0.0225;0.1780;-4.2290;1.0687;-0.7863;26.0829;
33.919;1.0205;-0.0198;0.1709;-4.1985;1.0763;-0.7557;26.0829;
33.939;1.0239;-0.0210;0.1704;-4.1221;0.8397;-0.8321;25.9888;
33.959;1.0208;-0.0176;0.1760;-4.1298;0.9847;-0.6794;25.9888;
33.979;1.0183;-0.0176;0.1743;-4.2519;1.0305;-0.9237;26.1771;
33.999;1.0173;-0.0208;0.1743;-4.2901;1.1298;-0.7863;25.9888;
34.019;1.0205;-0.0286;0.1709;-4.2366;0.8626;-0.9695;25.9888;
34.039;1.0181;-0.0232;0.1763;-4.0687;1.0763;-0.8473;26.0829;
34.059;1.0198;-0.0195;0.1770;-4.1374;1.0992;-0.7786;26.0829;
34.079;1.0144;-0.0237;0.1799;-4.2824;0.9160;-0.7710;25.9888;
34.099;1.0195;-0.0200;0.1709;-4.2748;0.9542;-0.8702;26.0829;
34.119;1.0273;-0.0186;0.1758;-4.2290;0.9542;-0.7710;26.0829;
34.139;1.0212;-0.0146;0.1641;-4.2443;1.0000;-0.9618;25.9888;
34.159;1.0239;-0.0212;0.1741;-4.2519;1.0000;-0.9008;26.0829;
34.179;1.0195;-0.0173;0.1748;-4.3588;0.9160;-0.7939;25.9888;
34.199;1.0251;-0.0176;0.1733;-4.3206;0.9695;-0.9084;25.9888;
34.219;1.0212;-0.0164;0.1790;-4.2137;0.9008;-0.8397;26.0829;
34.239;1.0210;-0.0193;0.1733;-4.4351;0.9237;-0.9542;25.9888;
34.259;1.0173;-0.0166;0.1743;-4.2290;0.9695;-0.8626;25.8947;
34.279;1.0205;-0.0288;0.1799;-4.2366;1.0000;-0.8321;26.0829;
34.299;1.0193;-0.0239;0.1726;-4.2061;0.9695;-0.9237;25.9888;
34.319;1.0203;-0.0225;0.1790;-4.3130;1.0229;-0.9160;25.9888;
34.339;1.0186;-0.0215;0.1711;-4.0840;0.8550;-0.8550;25.9888;
34.359;1.0247;-0.0259;0.1787;-4.2977;1.0305;-0.8702;26.0829;
34.379;1.0205;-0.0208;0.1658;-4.3053;0.9847;-0.9237;26.0829;
34.399;1.0181;-0.0173;0.1755;-4.3282;1.0076;-0.7176;26.0829;
34.419;1.0129;-0.0205;0.1736;-4.1374;1.0305;-0.7786;25.9888;
34.439;1.0247;-0.0193;0.1831;-4.3817;0.9008;-0.8702;25.9888;
34.459;1.0251;-0.0259;0.1692;-4.2366;0.9695;-0.8473;25.9888;
34.479;1.0159;-0.0200;0.1794;-4.1832;1.0687;-0.7786;26.0829;
34.499;1.0142;-0.0200;0.1802;-4.2977;0.9847;-0.8473;25.9888;
34.519;1.0239;-0.0217;0.1785;-4.3130;1.1221;-0.8702;25.9888;
34.539;1.0229;-0.0171;0.1682;-4.1603;0.7786;-0.9771;26.0829;
34.559;1.0181;-0.0205;0.1736;-4.3588;1.0076;-0.8015;25.9888;
34.579;1.0186;-0.0225;0.1814;-4.3740;0.8244;-0.8473;26.0829;
34.599;1.0205;-0.0203;0.1787;-4.2290;1.1450;-0.9084;26.0829;
34.619;1.0200;-0.0161;0.1760;-4.1756;1.0000;-0.8244;26.0829;
34.639;1.0183;-0.0142;0.1738;-4.2748;1.0458;-0.7939;26.0829;
34.659;1.0237;-0.0151;0.1838;-4.3053;1.0153;-0.7481;25.9888;
34.679;1.0195;-0.0249;0.1650;-4.2214;0.9924;-1.0458;26.1771;
34.699;1.0220;-0.0176;0.1753;-4.3817;0.9313;-0.8855;25.9888;
34.719;1.0251;-0.0234;0.1760;-4.2061;1.1221;-0.7405;26.1771;
34.739;1.0166;-0.0273;0.1707;-4.2519;0.9695;-0.8473;26.0829;
34.759;1.0229;-0.0229;0.1763;-4.3282;0.8473;-0.7863;25.9888;
34.779;1.0237;-0.0161;0.1660;-4.3053;1.0153;-0.7328;26.0829;
34.799;1.0166;-0.0232;0.1697;-4.1832;0.9542;-0.7939;26.0829;
34.819;1.0229;-0.0234;0.1719;-4.2748;0.9313;-1.0305;25.9888;
34.839;1.0193;-0.0200;0.1741;-4.2061;0.8244;-0.8626;26.0829;
34.859;1.0244;-0.0232;0.1775;-4.2901;0.9847;-0.8244;26.0829;
34.879;1.0195;-0.0232;0.1819;-4.1985;1.0534;-0.9466;26.1771;
34.899;1.0168;-0.0195;0.1738;-4.1985;0.9084;-0.7634;25.9888;
34.919;1.0203;-0.0188;0.1765;-4.1527;0.9313;-0.7786;26.0829;
34.939;1.0161;-0.0173;0.1775;-4.1985;1.0534;-0.6794;25.9888;
34.959;1.0205;-0.0181;0.1760;-4.3053;1.0076;-0.8626;25.9888;
34.979;1.0181;-0.0208;0.1794;-4.0840;1.0076;-0.9084;25.9888;
34.999;1.0247;-0.0186;0.1768;-4.2214;0.8779;-0.8626;26.0829;
35.019;1.0205;-0.0254;0.1716;-4.2901;0.9160;-0.8702;26.0829;
35.039;1.0195;-0.0212;0.1763;-4.2977;1.1985;-0.8550;25.9888;
35.059;1.0166;-0.0259;0.1680;-4.2366;1.0000;-0.7710;25.9888;
35.079;1.0186;-0.0215;0.1663;-4.2901;1.0992;-0.7786;25.9888;
35.099;1.0205;-0.0210;0.1799;-4.2366;1.0076;-0.8931;25.9888;
35.119;1.0229;-0.0227;0.1685;-4.1985;0.9695;-0.6641;26.0829;
35.139;1.0164;-0.0225;0.1772;-4.2290;1.0305;-0.7786;26.0829;
35.159;1.0161;-0.0198;0.1716;-4.2748;0.9771;-0.8321;25.9888;
35.179;1.0173;-0.0232;0.1707;-4.2137;1.0382;-0.9160;25.9888;
35.199;1.0225;-0.0215;0.1787;-4.2748;1.0229;-0.7023;26.0829;
35.219;1.0203;-0.0181;0.1675;-4.2443;1.0076;-0.7176;25.9888;
35.239;1.0212;-0.0195;0.1719;-4.2672;0.9924;-0.9008;26.0829;
35.259;1.0256;-0.0200;0.1809;-4.1679;1.0076;-0.6947;26.0829;
35.279;1.0173;-0.0146;0.1702;-4.2214;0.8779;-0.9695;25.9888;
35.299;1.0132;-0.0156;0.1758;-4.1069;1.1450;-0.8244;25.9888;
35.319;1.0181;-0.0173;0.1670;-4.4351;0.9924;-0.8931;25.9888;
35.339;1.0210;-0.0149;0.1748;-4.1145;0.7939;-0.8015;26.0829;
35.359;1.0164;-0.0190;0.1760;-4.0992;0.9313;-0.7863;26.0829;
35.379;1.0190;-0.0186;0.1794;-4.3359;1.0992;-0.9466;26.0829;
35.399;1.0212;-0.0195;0.1782;-4.4962;0.9924;-0.7405;25.9888;
35.419;1.0247;-0.0156;0.1763;-4.2672;0.9313;-0.8473;25.9888;
35.439;1.0146;-0.0198;0.1689;-4.2290;0.9466;-0.7863;25.9888;
35.459;1.0256;-0.0210;0.1736;-4.1679;1.0229;-0.8321;26.0829;
35.479;1.0164;-0.0203;0.1716;-4.1221;0.9237;-0.7252;25.9888;
35.499;1.0198;-0.0193;0.1775;-4.0916;0.9160;-0.8855;25.8947;
35.519;1.0215;-0.0215;0.1714;-4.4046;1.0611;-0.8244;26.0829;
35.539;1.0159;-0.0249;0.1697;-4.1298;1.0000;-0.8550;25.9888;
35.559;1.0198;-0.0200;0.1790;-4.2290;1.0076;-0.7786;26.0829;
35.579;1.0164;-0.0171;0.1704;-4.3130;1.1374;-0.8931;26.0829;
35.599;1.0225;-0.0181;0.1702;-4.2443;0.9160;-0.8397;25.9888;
35.619;1.0159;-0.0173;0.1731;-4.3053;0.9771;-0.8397;25.9888;
35.639;1.0234;-0.0188;0.1763;-4.1832;1.1374;-0.8702;25.9888;
35.659;1.0168;-0.0239;0.1746;-4.0992;0.8550;-0.8397;26.0829;
35.679;1.0198;-0.0176;0.1724;-4.2824;0.8321;-0.7863;25.9888;
35.699;1.0171;-0.0256;0.1755;-4.2595;1.1985;-0.9542;25.9888;
35.719;1.0164;-0.0151;0.1682;-4.4427;1.1145;-0.8015;25.9888;
35.739;1.0212;-0.0222;0.1753;-4.2366;0.8855;-0.8397;25.9888;
35.759;1.0220;-0.0244;0.1719;-4.3740;0.9313;-0.7481;25.9888;
35.779;1.0164;-0.0242;0.1716;-4.1603;0.9008;-0.9695;25.9888;
35.799;1.0232;-0.0266;0.1746;-4.3130;1.0916;-1.0305;25.9888;
35.819;1.0168;-0.0208;0.1760;-4.4122;1.0153;-0.7557;25.9888;
35.839;1.0193;-0.0208;0.1758;-4.2290;0.9924;-0.9237;26.0829;
35.859;1.0171;-0.0168;0.1711;-4.2595;0.8473;-0.7634;26.0829;
35.879;1.0198;-0.0205;0.1716;-4.2214;1.0000;-0.8931;25.8947;
35.899;1.0181;-0.0234;0.1719;-4.2977;0.9618;-0.7710;25.9888;
35.919;1.0210;-0.0273;0.1748;-4.1908;1.0458;-0.8550;26.0829;
35.939;1.0190;-0.0225;0.1670;-4.2061;0.8931;-0.9084;25.9888;
35.959;1.0208;-0.0237;0.1719;-4.2595;0.9237;-0.8015;26.0829;
35.979;1.0151;-0.0159;0.1746;-4.1908;1.0611;-0.7710;26.0829;
35.999;1.0168;-0.0200;0.1797;-4.1832;0.9924;-0.8397;25.9888;
36.019;1.0198;-0.0129;0.1748;-4.2901;0.9618;-0.9237;26.0829;
36.039;1.0149;-0.0232;0.1777;-4.0611;0.9924;-0.6641;26.0829;
36.059;1.0205;-0.0225;0.1704;-4.1985;1.2519;-0.8931;26.0829;
36.079;1.0181;-0.0168;0.1721;-4.1756;1.0611;-0.8321;25.9888;
36.099;1.0227;-0.0178;0.1675;-4.1450;1.0382;-0.8702;25.9888;
36.119;1.0229;-0.0142;0.1750;-4.3664;0.9618;-0.7252;25.9888;
36.139;1.0132;-0.0198;0.1743;-4.2672;0.9084;-1.0000;26.0829;
36.159;1.0164;-0.0225;0.1719;-4.0382;0.9084;-0.8702;26.0829;
36.179;1.0264;-0.0195;0.1760;-4.1527;0.9313;-0.7710;25.9888;
36.199;1.0176;-0.0212;0.1750;-4.1679;1.0534;-0.9771;25.9888;
36.219;1.0178;-0.0198;0.1724;-4.2137;1.0840;-0.7252;26.0829;
36.239;1.0237;-0.0217;0.1763;-4.3053;0.9924;-0.9084;26.0829;
36.259;1.0234;-0.0183;0.1772;-4.1679;0.9542;-0.7481;26.0829;
36.279;1.0232;-0.0142;0.1687;-4.1908;0.8473;-0.9542;25.9888;
36.299;1.0205;-0.0229;0.1682;-4.2901;0.7939;-0.9237;26.0829;
36.319;1.0171;-0.0261;0.1670;-4.1374;1.1679;-0.9466;25.8947;
36.340;1.0278;-0.0212;0.1665;-4.2443;1.1298;-0.8397;26.0829;
36.359;1.0232;-0.0273;0.1836;-4.2595;1.1527;-0.7557;25.9888;
36.379;1.0203;-0.0161;0.1670;-4.3053;0.8855;-0.9313;26.0829;
36.399;1.0151;-0.0220;0.1777;-4.2290;1.0000;-0.6336;26.0829;
36.419;1.0229;-0.0186;0.1763;-4.0611;0.8702;-0.7710;26.0829;
36.439;1.0183;-0.0190;0.1755;-4.3664;0.8931;-0.8244;26.1771;
36.459;1.0227;-0.0220;0.1763;-4.2748;1.0229;-0.8397;25.9888;
36.479;1.0217;-0.0205;0.1724;-4.0992;0.8702;-0.7481;25.9888;
36.499;1.0222;-0.0203;0.1687;-4.2214;0.9542;-0.7786;26.0829;
36.519;1.0161;-0.0161;0.1748;-4.1374;1.0076;-0.8397;26.0829;
36.539;1.0181;-0.0205;0.1770;-4.1832;0.9466;-0.6489;26.0829;
36.559;1.0178;-0.0232;0.1768;-4.1374;1.1221;-0.8855;25.9888;
36.579;1.0208;-0.0166;0.1746;-4.1374;1.1679;-0.8626;25.8947;
36.599;1.0190;-0.0217;0.1721;-4.0153;0.8092;-0.8473;26.0829;
36.619;1.0244;-0.0212;0.1711;-4.2366;0.9695;-0.7939;26.0829;
36.639;1.0183;-0.0159;0.1711;-4.1450;1.0916;-0.7176;26.0829;
36.659;1.0220;-0.0198;0.1738;-4.2061;0.8702;-0.7786;25.9888;
36.679;1.0156;-0.0203;0.1721;-4.1450;1.0687;-0.8702;25.9888;
36.699;1.0222;-0.0166;0.1748;-4.2443;0.8168;-0.9237;26.0829;
36.719;1.0251;-0.0249;0.1624;-4.1756;1.0000;-0.8168;26.0829;
36.739;1.0237;-0.0217;0.1711;-4.2061;0.9008;-0.8244;26.0829;
36.759;1.0142;-0.0181;0.1787;-4.2290;1.0916;-0.9389;25.9888;
36.779;1.0203;-0.0166;0.1748;-4.1221;0.8702;-0.8321;26.0829;
36.799;1.0198;-0.0232;0.1711;-4.2595;1.0153;-0.8779;25.9888;
36.819;1.0217;-0.0220;0.1726;-4.1145;0.9237;-0.8015;25.9888;
36.839;1.0195;-0.0227;0.1787;-4.1832;1.0534;-0.7863;25.8947;
36.859;1.0198;-0.0195;0.1694;-4.2061;1.0611;-0.9542;25.9888;
36.879;1.0173;-0.0176;0.1726;-4.3817;0.9847;-0.9618;25.9888;
36.899;1.0271;-0.0200;0.1733;-4.2137;1.0076;-0.7557;25.9888;
36.919;1.0198;-0.0225;0.1829;-4.2214;1.1221;-0.7710;26.0829;
36.939;1.0186;-0.0261;0.1716;-4.2214;0.9924;-0.7634;25.9888;
36.959;1.0203;-0.0208;0.1824;-4.3359;0.9542;-0.9542;25.9888;
36.979;1.0251;-0.0161;0.1743;-3.9771;0.9237;-0.8626;26.0829;
36.999;1.0225;-0.0137;0.1768;-4.3588;1.0687;-0.7176;26.0829;
37.019;1.0168;-0.0205;0.1724;-4.1298;0.9924;-0.9924;26.0829;
37.039;1.0217;-0.0190;0.1716;-4.0916;0.9542;-0.6565;25.9888;
37.059;1.0215;-0.0195;0.1694;-4.2443;1.0076;-0.8550;25.9888;
37.079;1.0186;-0.0171;0.1670;-4.3206;0.9008;-0.6870;25.9888;
37.099;1.0129;-0.0181;0.1694;-4.1679;0.8397;-0.7557;25.9888;
37.119;1.0190;-0.0229;0.1802;-4.1908;0.8931;-0.9847;26.0829;
37.139;1.0229;-0.0212;0.1702;-4.2137;1.0305;-0.7634;25.9888;
37.159;1.0225;-0.0181;0.1733;-4.2137;1.0153;-0.8931;26.0829;
37.179;1.0234;-0.0188;0.1716;-4.2824;1.0229;-0.7176;25.9888;
37.199;1.0132;-0.0198;0.1775;-4.3359;0.9313;-0.8244;25.9888;
37.219;1.0178;-0.0198;0.1699;-4.1298;1.0076;-0.9389;26.0829;
37.239;1.0195;-0.0193;0.1765;-4.1985;1.0076;-0.7634;26.0829;
37.259;1.0210;-0.0286;0.1716;-4.4504;1.0992;-0.6870;26.0829;
37.279;1.0183;-0.0222;0.1790;-4.0458;0.9771;-0.7481;25.9888;
37.299;1.0217;-0.0195;0.1726;-4.2672;0.8779;-0.9008;26.0829;
37.319;1.0212;-0.0176;0.1797;-4.2214;1.0763;-0.8550;26.0829;
37.339;1.0181;-0.0212;0.1765;-4.2290;0.9466;-1.0305;26.0829;
37.359;1.0208;-0.0151;0.1663;-4.1756;1.0458;-0.8550;25.9888;
37.379;1.0239;-0.0229;0.1758;-4.3817;1.0534;-0.9618;25.9888;
37.399;1.0244;-0.0181;0.1746;-4.1756;1.0382;-0.7099;26.0829;
37.419;1.0222;-0.0166;0.1653;-4.0611;0.8702;-0.7710;25.9888;
37.439;1.0208;-0.0232;0.1772;-4.1527;1.0229;-0.8244;26.0829;
37.459;1.0237;-0.0200;0.1704;-4.1603;1.0000;-0.8702;25.8947;
37.479;1.0256;-0.0188;0.1729;-4.0687;1.1221;-0.8473;25.9888;
37.499;1.0210;-0.0225;0.1797;-4.3053;0.9466;-0.8397;26.0829;
37.519;1.0168;-0.0244;0.1685;-4.1298;0.8702;-0.8168;25.9888;
37.539;1.0222;-0.0269;0.1758;-4.2061;1.0840;-0.7328;26.0829;
37.559;1.0181;-0.0264;0.1738;-4.3053;0.8779;-1.0305;26.0829;
37.579;1.0251;-0.0144;0.1755;-4.3969;0.8321;-0.8244;26.0829;
37.599;1.0178;-0.0229;0.1653;-4.3053;0.9237;-0.8702;25.9888;
37.619;1.0168;-0.0203;0.1663;-4.2366;0.9466;-0.9618;26.0829;
37.639;1.0193;-0.0164;0.1721;-4.1908;0.9008;-0.7252;26.0829;
37.659;1.0195;-0.0188;0.1770;-4.1603;0.9008;-0.9008;26.0829;
37.679;1.0181;-0.0173;0.1729;-4.2824;1.0076;-0.9313;26.0829;
37.699;1.0134;-0.0220;0.1802;-4.1603;0.7176;-0.8779;26.0829;
37.719;1.0171;-0.0190;0.1775;-4.0992;0.9695;-0.8015;26.0829;
37.739;1.0188;-0.0173;0.1731;-4.4198;1.0000;-0.9695;25.9888;
37.759;1.0276;-0.0205;0.1814;-4.1832;0.9160;-0.9160;26.0829;
37.779;1.0168;-0.0220;0.1826;-4.0611;0.9008;-0.8473;25.8947;
37.799;1.0210;-0.0161;0.1726;-4.3206;0.9160;-0.9084;26.0829;
37.819;1.0186;-0.0220;0.1753;-4.3740;0.9542;-0.8321;26.0829;
37.839;1.0115;-0.0181;0.1716;-4.1985;1.0534;-0.8550;26.0829;
37.859;1.0217;-0.0249;0.1753;-4.5038;0.9771;-0.8550;26.0829;
37.879;1.0217;-0.0198;0.1724;-4.4351;1.0000;-0.7786;25.9888;
37.899;1.0229;-0.0220;0.1794;-4.1145;1.1221;-0.8321;26.0829;
37.919;1.0217;-0.0190;0.1738;-4.2672;0.9084;-0.8626;26.0829;
37.939;1.0205;-0.0225;0.1741;-4.2214;0.9008;-0.8702;26.0829;
37.959;1.0188;-0.0198;0.1748;-4.2519;1.0076;-0.8321;26.0829;
37.979;1.0203;-0.0168;0.1736;-4.1221;0.9924;-0.8779;26.0829;
37.999;1.0217;-0.0205;0.1687;-4.4427;1.0763;-0.8626;26.0829;
38.019;1.0217;-0.0234;0.1682;-4.1985;0.7786;-0.7557;26.0829;
38.039;1.0176;-0.0200;0.1694;-4.0611;1.0763;-0.7481;25.9888;
38.059;1.0227;-0.0220;0.1687;-4.2519;1.0000;-0.8244;25.9888;
38.079;1.0178;-0.0232;0.1719;-4.0763;0.8397;-0.8702;25.9888;
38.099;1.0198;-0.0203;0.1763;-4.2824;1.0305;-0.7634;25.9888;
38.119;1.0203;-0.0261;0.1782;-4.3511;1.0611;-0.9160;26.0829;
38.139;1.0188;-0.0217;0.1694;-4.3359;1.0000;-0.7405;26.0829;
38.159;1.0203;-0.0200;0.1716;-4.2366;0.7939;-0.9466;26.0829;
38.179;1.0181;-0.0208;0.1787;-4.3893;0.8321;-0.9008;25.9888;
38.199;1.0195;-0.0303;0.1733;-4.2901;1.0611;-0.7939;26.0829;
38.219;1.0198;-0.0164;0.1743;-4.0763;0.9313;-0.8473;26.0829;
38.239;1.0151;-0.0205;0.1775;-4.2595;1.0153;-0.9160;26.0829;
38.259;1.0137;-0.0220;0.1702;-4.3511;0.7786;-0.9237;25.9888;
38.279;1.0195;-0.0200;0.1699;-4.1985;1.0611;-0.7481;25.9888;
38.299;1.0168;-0.0200;0.1794;-4.2443;0.8702;-0.8397;26.0829;
38.319;1.0176;-0.0215;0.1719;-4.1985;0.9695;-0.7939;26.0829;
38.339;1.0195;-0.0220;0.1816;-4.0916;0.9695;-0.7786;25.9888;
38.359;1.0188;-0.0234;0.1755;-4.2748;0.9847;-0.8244;25.9888;
38.379;1.0146;-0.0225;0.1733;-4.3893;0.9466;-0.9084;26.0829;
38.399;1.0239;-0.0229;0.1699;-4.1832;0.9237;-0.8702;25.9888;
38.419;1.0232;-0.0227;0.1768;-4.3893;0.8702;-0.7557;26.0829;
38.439;1.0200;-0.0195;0.1729;-4.4122;0.8779;-0.7252;25.9888;
38.459;1.0264;-0.0205;0.1743;-4.3130;0.8931;-0.8244;25.9888;
38.479;1.0193;-0.0132;0.1709;-4.1221;0.9618;-0.9008;25.9888;
38.499;1.0259;-0.0195;0.1741;-4.3282;1.0611;-0.8244;25.9888;
38.519;1.0198;-0.0227;0.1782;-4.0992;1.0763;-0.8702;25.9888;
38.539;1.0195;-0.0183;0.1692;-4.2748;0.9618;-0.7786;25.9888;
38.559;1.0164;-0.0193;0.1731;-4.2901;0.8397;-0.8550;25.9888;
38.579;1.0205;-0.0222;0.1724;-4.2672;1.1985;-0.8473;25.9888;
38.599;1.0208;-0.0232;0.1707;-4.3053;1.0305;-0.7863;25.9888;
38.619;1.0227;-0.0190;0.1738;-4.3664;0.9084;-0.8779;25.9888;
38.639;1.0161;-0.0215;0.1702;-4.2061;0.9771;-0.7710;25.9888;
38.659;1.0212;-0.0205;0.1704;-4.1374;0.8931;-0.8550;25.9888;
38.679;1.0205;-0.0242;0.1655;-4.2366;0.8397;-0.7710;25.9888;
38.699;1.0156;-0.0237;0.1709;-4.1603;0.8626;-0.8473;25.9888;
38.719;1.0212;-0.0237;0.1765;-4.2443;0.8168;-0.9237;26.1771;
38.739;1.0244;-0.0195;0.1799;-4.3817;0.9389;-0.7176;25.9888;
38.759;1.0229;-0.0256;0.1777;-4.3053;1.0305;-0.9389;25.9888;
38.779;1.0220;-0.0176;0.1682;-4.1145;0.9924;-0.9389;25.9888;
38.799;1.0198;-0.0208;0.1694;-4.2290;1.0229;-0.9695;25.9888;
