Дата эксперимента: 31.10.2023 21:20:26
time;Accel_x;Accel_y;Accel_z;Gyro_x;Gyro_y;Gyro_z;Temperature
0.000;1.0093;-0.0081;0.2747;-4.0534;1.0229;-0.6947;30.0359;
0.022;1.0063;0.0012;0.2758;-4.2061;0.9084;-0.9008;30.0359;
0.043;1.0073;-0.0022;0.2813;-4.3740;0.9771;-0.8015;30.0359;
0.064;1.0183;-0.0063;0.2772;-4.2443;1.0305;-0.8550;30.0359;
0.085;1.0117;-0.0044;0.2783;-4.1450;0.9542;-0.9389;29.9418;
0.105;1.0139;0.0022;0.2672;-4.3053;0.9237;-1.0153;30.0359;
0.127;1.0088;-0.0061;0.2866;-4.3435;0.9313;-0.8397;30.1300;
0.148;1.0110;-0.0044;0.2769;-4.2977;0.8473;-0.8473;30.0359;
0.169;1.0144;-0.0039;0.2777;-4.1603;1.0763;-0.9008;29.9418;
0.190;1.0090;-0.0034;0.2774;-4.1603;1.0458;-0.9084;30.0359;
0.211;1.0085;-0.0078;0.2697;-4.1985;1.1221;-0.9847;30.1300;
0.232;1.0137;-0.0029;0.2747;-4.0458;0.9237;-0.7557;30.0359;
0.253;1.0117;-0.0032;0.2749;-4.2137;0.9924;-0.7099;30.1300;
0.274;1.0122;-0.0044;0.2824;-4.1145;0.9771;-1.0153;30.0359;
0.296;1.0071;-0.0007;0.2821;-4.0611;0.9237;-0.9542;30.0359;
0.316;1.0144;-0.0027;0.2760;-4.0840;1.0840;-0.8702;29.9418;
0.337;1.0095;-0.0085;0.2716;-4.1603;0.8626;-0.8015;30.0359;
0.358;1.0110;-0.0046;0.2711;-4.1069;1.0611;-0.8397;30.0359;
0.379;1.0125;-0.0039;0.2774;-4.1832;0.8473;-0.9618;30.1300;
0.400;1.0081;-0.0076;0.2722;-4.1679;0.8015;-0.7939;30.0359;
0.421;1.0098;-0.0024;0.2744;-4.1221;1.0763;-0.6870;30.0359;
0.442;1.0078;-0.0012;0.2716;-4.2214;0.9160;-0.9847;30.0359;
0.463;1.0117;-0.0015;0.2733;-4.2366;1.1832;-0.9084;30.0359;
0.484;1.0139;-0.0002;0.2716;-4.1679;1.0153;-0.7176;30.0359;
0.505;1.0095;-0.0061;0.2727;-4.2977;1.0534;-0.8550;29.9418;
0.526;1.0068;-0.0034;0.2716;-4.2366;0.9237;-0.8244;30.0359;
0.547;1.0120;-0.0076;0.2691;-4.1450;0.9466;-0.8397;29.9418;
0.568;1.0110;-0.0044;0.2858;-4.0611;1.0840;-0.9542;29.9418;
0.589;1.0146;-0.0059;0.2733;-4.1527;1.0763;-0.8244;29.9418;
0.611;1.0085;-0.0090;0.2783;-4.0992;1.0229;-1.0229;29.9418;
0.632;1.0166;-0.0039;0.2813;-4.1908;1.0382;-0.8626;30.0359;
0.653;1.0076;-0.0005;0.2713;-4.1756;0.9695;-0.9084;30.0359;
0.674;1.0073;-0.0042;0.2719;-4.1756;0.8550;-0.8626;30.0359;
0.695;1.0093;-0.0034;0.2794;-4.2901;0.9924;-0.8397;30.0359;
0.715;1.0088;-0.0046;0.2788;-4.3130;0.9695;-0.7176;29.9418;
0.737;1.0063;-0.0017;0.2797;-4.1145;0.9008;-1.0840;30.0359;
0.757;1.0093;-0.0068;0.2766;-4.1221;1.1603;-1.0763;30.0359;
0.779;1.0117;-0.0032;0.2722;-4.0763;0.9237;-0.7786;30.0359;
0.800;1.0071;-0.0020;0.2799;-4.0763;1.1374;-0.8397;30.0359;
0.821;1.0132;-0.0029;0.2730;-4.0611;0.8855;-0.7786;30.0359;
0.842;1.0164;-0.0017;0.2802;-4.2061;1.1221;-0.8397;30.0359;
0.863;1.0168;-0.0073;0.2844;-4.0992;0.9924;-0.9466;30.0359;
0.884;1.0073;-0.0081;0.2794;-4.2901;0.9695;-0.8550;30.0359;
0.905;1.0127;-0.0059;0.2774;-4.2595;1.1603;-1.0229;29.9418;
0.926;1.0181;-0.0051;0.2794;-4.0992;1.0305;-0.8015;30.0359;
0.947;1.0071;-0.0083;0.2677;-4.0229;0.9924;-0.9084;29.9418;
0.967;1.0168;-0.0068;0.2783;-4.3817;1.2214;-0.8626;30.0359;
0.989;1.0093;-0.0049;0.2802;-4.1985;1.0687;-0.9313;29.9418;
1.010;1.0081;-0.0007;0.2752;-4.1145;1.0153;-0.8015;29.9418;
1.031;1.0149;-0.0056;0.2727;-4.2366;1.0076;-0.8473;30.0359;
1.052;1.0129;-0.0090;0.2774;-4.1069;0.9542;-0.8015;29.9418;
1.073;1.0120;-0.0002;0.2649;-4.1527;1.0076;-0.7328;29.9418;
1.094;1.0103;-0.0034;0.2755;-4.1450;0.9389;-1.0153;30.1300;
1.114;1.0085;-0.0029;0.2799;-4.2748;1.0763;-0.8473;30.0359;
1.135;1.0103;-0.0051;0.2699;-4.1298;1.0305;-0.9160;30.0359;
1.156;1.0149;-0.0046;0.2694;-4.1679;0.9389;-0.7710;30.0359;
1.178;1.0081;-0.0103;0.2819;-4.1679;1.0458;-0.9389;29.9418;
1.198;1.0178;-0.0027;0.2819;-4.4122;1.0000;-0.8550;29.9418;
1.219;1.0112;-0.0044;0.2821;-4.1832;1.0229;-0.8244;29.9418;
1.240;1.0122;-0.0042;0.2783;-4.0992;0.9847;-0.7328;29.9418;
1.262;1.0078;-0.0034;0.2785;-4.0840;1.0534;-1.0458;30.0359;
1.283;1.0129;-0.0090;0.2821;-4.0229;0.8931;-0.9924;29.9418;
1.304;1.0093;-0.0061;0.2816;-4.1069;1.0611;-0.7099;30.0359;
1.326;1.0112;-0.0066;0.2763;-3.9847;0.7634;-0.7710;29.9418;
1.348;1.0107;-0.0085;0.2794;-4.2214;1.0611;-0.9618;29.9418;
1.369;1.0110;-0.0012;0.2821;-4.2672;0.9313;-0.8702;29.9418;
1.390;1.0083;-0.0017;0.2677;-4.1145;0.9771;-0.8397;30.1300;
1.411;1.0146;-0.0024;0.2747;-4.0992;1.1832;-0.7863;30.0359;
1.432;1.0085;-0.0107;0.2719;-3.9924;0.9695;-0.9084;30.0359;
1.453;1.0159;-0.0054;0.2722;-4.2214;0.9389;-0.7863;30.0359;
1.474;1.0110;-0.0056;0.2816;-4.1908;1.1221;-0.7786;30.0359;
1.495;1.0046;-0.0071;0.2719;-4.3130;0.9618;-1.0076;30.0359;
1.516;1.0176;-0.0024;0.2735;-4.2595;0.7634;-0.9313;30.0359;
1.537;1.0164;-0.0051;0.2874;-4.2214;0.9847;-0.9771;30.1300;
1.557;1.0115;-0.0039;0.2733;-4.0305;0.9771;-0.8550;30.0359;
1.579;1.0063;-0.0034;0.2752;-4.2748;0.9466;-0.7939;30.0359;
1.599;1.0168;-0.0020;0.2697;-4.0763;1.0382;-0.9771;30.0359;
1.621;1.0105;-0.0042;0.2769;-4.3740;1.0992;-0.7634;30.0359;
1.643;1.0076;-0.0024;0.2830;-4.0229;1.0611;-0.8473;29.8476;
1.664;1.0103;-0.0073;0.2810;-4.3206;1.0000;-0.9542;30.0359;
1.685;1.0125;-0.0071;0.2747;-3.9695;0.9389;-1.0763;30.0359;
1.706;1.0139;-0.0098;0.2713;-4.0229;1.1679;-0.8015;30.0359;
1.727;1.0122;-0.0029;0.2788;-4.0382;1.1527;-0.8855;29.9418;
1.748;1.0066;-0.0046;0.2844;-3.9618;1.1298;-0.9618;30.0359;
1.769;1.0115;-0.0005;0.2769;-4.2519;1.0611;-0.7634;30.0359;
1.790;1.0085;-0.0044;0.2808;-4.2748;0.8244;-0.7557;30.0359;
1.811;1.0107;-0.0059;0.2785;-4.2443;1.0458;-0.9771;30.0359;
1.832;1.0100;-0.0034;0.2702;-4.2672;1.1908;-0.9237;30.0359;
1.853;1.0088;-0.0107;0.2805;-4.2290;0.9160;-0.9618;29.9418;
1.874;1.0115;-0.0029;0.2827;-4.2443;1.0611;-0.7328;30.0359;
1.895;1.0122;-0.0117;0.2674;-4.1298;1.1069;-0.9237;29.9418;
1.916;1.0173;-0.0063;0.2666;-4.0763;1.0382;-0.8397;30.0359;
1.937;1.0125;-0.0002;0.2738;-4.0611;1.1069;-0.9466;29.9418;
1.958;1.0110;-0.0051;0.2783;-4.1069;1.0763;-1.1069;30.0359;
1.979;1.0093;-0.0049;0.2769;-4.1908;0.9771;-0.8779;29.9418;
1.999;1.0110;-0.0083;0.2747;-4.3206;1.2519;-0.7099;30.0359;
2.021;1.0081;-0.0017;0.2760;-4.1221;1.0916;-0.7710;30.0359;
2.042;1.0125;-0.0022;0.2708;-4.2519;0.9389;-0.9160;29.9418;
2.063;1.0215;-0.0032;0.2760;-4.2977;0.8779;-0.6718;30.0359;
2.084;1.0132;-0.0068;0.2866;-4.3053;1.0687;-0.9313;29.9418;
2.104;1.0110;-0.0024;0.2833;-4.1756;1.0382;-0.8626;30.0359;
2.125;1.0105;-0.0051;0.2774;-4.1450;1.0458;-0.9618;30.0359;
2.146;1.0066;-0.0049;0.2769;-4.3817;1.0763;-0.8626;30.0359;
2.167;1.0129;-0.0037;0.2713;-4.2748;1.0992;-0.8855;30.0359;
2.189;1.0066;-0.0046;0.2708;-3.9924;1.0992;-0.8397;29.9418;
2.210;1.0168;-0.0107;0.2774;-4.2290;1.0534;-0.9084;30.0359;
2.232;1.0132;-0.0042;0.2841;-4.2061;0.8779;-0.8397;29.9418;
2.252;1.0044;-0.0044;0.2719;-4.1756;1.0076;-0.8321;30.1300;
2.273;1.0098;-0.0056;0.2677;-4.0611;0.9313;-0.8015;30.0359;
2.294;1.0100;0.0002;0.2735;-4.1832;1.0763;-0.8321;30.0359;
2.315;1.0120;-0.0083;0.2669;-4.0382;0.9695;-0.8779;30.0359;
2.336;1.0081;-0.0034;0.2727;-4.1221;0.9618;-0.7863;30.1300;
2.357;1.0112;-0.0056;0.2841;-4.2061;1.0305;-1.0305;30.0359;
2.378;1.0120;-0.0007;0.2788;-4.2443;1.1756;-0.9084;29.9418;
2.399;1.0127;-0.0039;0.2724;-4.2061;0.9542;-0.8092;29.9418;
2.420;1.0098;-0.0076;0.2799;-4.2443;0.8626;-1.0153;30.0359;
2.441;1.0054;-0.0056;0.2735;-4.1527;0.9771;-1.0382;29.9418;
2.462;1.0137;-0.0037;0.2741;-4.1221;0.8321;-0.8244;29.9418;
2.483;1.0137;-0.0046;0.2760;-4.0229;1.0382;-0.7939;29.9418;
2.504;1.0100;-0.0066;0.2741;-3.8397;1.1298;-0.9389;30.0359;
2.525;1.0103;-0.0081;0.2783;-4.1985;1.1145;-0.8779;30.0359;
2.546;1.0117;-0.0039;0.2708;-4.1450;0.9542;-0.7863;30.0359;
2.567;1.0093;-0.0076;0.2686;-4.2901;0.9542;-1.0076;29.9418;
2.589;1.0120;0.0015;0.2794;-4.3206;1.0611;-1.0229;30.0359;
2.610;1.0107;-0.0034;0.2880;-4.1603;1.0763;-0.9695;29.9418;
2.631;1.0137;-0.0076;0.2722;-4.1145;1.0534;-0.9084;29.9418;
2.652;1.0090;-0.0073;0.2691;-4.0305;1.1374;-0.8473;30.0359;
2.672;1.0107;0.0005;0.2716;-4.2443;0.9313;-0.7557;30.0359;
2.694;1.0103;-0.0027;0.2738;-4.2290;0.9466;-0.7405;30.0359;
2.715;1.0129;-0.0034;0.2747;-4.2824;1.1374;-0.8931;30.0359;
2.736;1.0110;-0.0054;0.2702;-4.3282;0.9237;-0.9237;30.0359;
2.756;1.0154;-0.0002;0.2810;-4.0611;0.9160;-0.9618;29.9418;
2.777;1.0085;-0.0066;0.2755;-4.3206;1.0763;-0.8626;29.9418;
2.798;1.0103;-0.0029;0.2738;-4.1832;0.7939;-0.9008;29.9418;
2.820;1.0112;-0.0078;0.2744;-4.1069;1.0611;-0.9237;29.9418;
2.841;1.0037;-0.0044;0.2783;-4.2519;0.9924;-0.9389;29.9418;
2.863;1.0098;-0.0049;0.2741;-4.2443;0.9847;-0.8779;30.0359;
2.884;1.0107;-0.0042;0.2705;-4.3817;0.8626;-0.8092;29.9418;
2.904;1.0107;-0.0066;0.2766;-4.2595;1.1527;-0.8321;29.9418;
2.925;1.0071;-0.0005;0.2694;-4.2595;1.1985;-0.8779;30.0359;
2.946;1.0100;-0.0081;0.2835;-4.0382;1.0611;-0.9084;30.0359;
2.967;1.0110;-0.0044;0.2844;-4.1527;1.0229;-0.8168;30.0359;
2.989;1.0100;-0.0051;0.2772;-4.0840;1.2214;-0.8397;30.0359;
3.010;1.0081;-0.0039;0.2797;-4.2290;0.9084;-0.7328;30.0359;
3.030;1.0122;-0.0076;0.2697;-4.2672;0.9771;-0.7634;29.9418;
3.052;1.0151;-0.0112;0.2802;-4.2137;0.8626;-0.7939;30.0359;
3.073;1.0076;-0.0007;0.2821;-4.2290;0.9695;-0.8244;30.0359;
3.094;1.0132;-0.0059;0.2711;-4.2824;0.8702;-0.8626;30.0359;
3.116;1.0120;-0.0066;0.2755;-4.1985;1.0611;-0.9389;29.9418;
3.137;1.0083;-0.0032;0.2733;-4.1450;1.0916;-0.8168;30.0359;
3.158;1.0127;-0.0071;0.2752;-4.3053;0.8931;-0.9237;30.0359;
3.179;1.0095;-0.0063;0.2730;-4.1527;1.0153;-0.8473;30.0359;
3.200;1.0115;-0.0071;0.2697;-4.0840;0.9695;-0.9008;30.0359;
3.220;1.0098;-0.0073;0.2733;-4.1069;1.0305;-0.7634;29.9418;
3.242;1.0037;-0.0034;0.2680;-4.1221;0.9084;-0.9084;30.0359;
3.263;1.0120;-0.0071;0.2769;-4.0458;1.0763;-0.7557;30.0359;
3.283;1.0093;-0.0076;0.2830;-4.1450;0.9084;-0.8702;30.0359;
3.305;1.0093;-0.0076;0.2763;-4.0458;1.1221;-0.9008;30.0359;
3.326;1.0073;-0.0034;0.2799;-4.1069;0.9008;-0.7557;29.9418;
3.348;1.0107;-0.0127;0.2855;-4.0534;1.0305;-0.8626;29.9418;
3.369;1.0088;-0.0073;0.2677;-4.0382;0.8550;-0.7023;29.9418;
3.390;1.0044;-0.0076;0.2669;-4.0611;1.0076;-0.8855;30.0359;
3.410;1.0120;-0.0046;0.2713;-4.4046;1.1756;-0.8092;30.0359;
3.431;1.0098;-0.0068;0.2772;-4.2595;1.0534;-0.8397;30.0359;
3.452;1.0071;-0.0046;0.2788;-4.2061;0.8397;-0.8855;30.0359;
3.473;1.0105;-0.0024;0.2769;-4.2137;0.9847;-0.6718;29.9418;
3.494;1.0059;-0.0049;0.2794;-4.1756;1.0000;-0.6718;30.0359;
3.515;1.0127;-0.0051;0.2766;-4.1374;0.9924;-0.9389;30.0359;
3.537;1.0139;0.0015;0.2772;-4.1221;1.0000;-1.0229;30.0359;
3.558;1.0107;-0.0068;0.2797;-4.0992;1.0305;-0.7405;29.9418;
3.579;1.0176;-0.0112;0.2780;-4.0000;1.0916;-0.9313;29.9418;
3.600;1.0071;-0.0022;0.2755;-4.0534;0.9695;-0.9237;30.0359;
3.621;1.0093;-0.0083;0.2830;-4.0840;0.9466;-0.9389;29.9418;
3.642;1.0088;-0.0034;0.2711;-4.0382;1.0992;-0.7710;30.1300;
3.663;1.0125;-0.0068;0.2883;-4.0916;0.9695;-0.8931;29.9418;
3.684;1.0103;-0.0007;0.2791;-4.2366;0.7023;-0.8626;29.9418;
3.704;1.0142;-0.0117;0.2716;-4.3206;1.2214;-0.6336;30.0359;
3.725;1.0105;-0.0051;0.2880;-4.1908;0.9466;-0.9237;29.9418;
3.746;1.0107;-0.0071;0.2702;-4.2672;0.9542;-0.9313;30.0359;
3.767;1.0103;-0.0029;0.2830;-4.0687;1.1679;-0.7557;30.0359;
3.788;1.0081;-0.0027;0.2797;-4.0840;1.0229;-0.8473;30.0359;
3.810;1.0071;-0.0046;0.2830;-4.2977;1.1679;-0.9771;29.9418;
3.831;1.0093;-0.0071;0.2727;-4.0534;0.8626;-0.7863;29.9418;
3.852;1.0107;-0.0044;0.2658;-4.0916;1.1374;-0.8779;30.0359;
3.872;1.0149;-0.0059;0.2891;-3.9237;1.0916;-0.8321;30.1300;
3.893;1.0061;0.0024;0.2697;-4.1374;0.9618;-0.8702;30.0359;
3.914;1.0127;0.0010;0.2799;-4.1832;1.0687;-0.8626;29.9418;
3.935;1.0120;-0.0010;0.2797;-4.3588;1.0840;-0.8626;29.9418;
3.956;1.0103;-0.0042;0.2688;-4.1221;1.0840;-1.1298;29.9418;
3.977;1.0129;-0.0039;0.2749;-4.0916;1.1450;-0.9389;30.0359;
3.999;1.0120;-0.0054;0.2858;-4.2519;1.0458;-0.8626;30.0359;
4.020;1.0103;-0.0068;0.2722;-4.0763;1.1679;-0.7557;30.0359;
4.041;1.0115;-0.0044;0.2686;-4.1679;0.9466;-0.9313;29.9418;
4.061;1.0117;-0.0029;0.2735;-4.1450;0.8397;-0.9084;29.9418;
4.082;1.0095;-0.0002;0.2741;-4.1374;1.0534;-0.9924;29.9418;
4.103;1.0098;-0.0002;0.2774;-3.9008;0.9924;-0.7939;30.0359;
4.124;1.0110;-0.0002;0.2813;-4.1679;1.0611;-1.0611;30.0359;
4.145;1.0117;0.0005;0.2760;-3.9847;1.1450;-0.7405;30.0359;
4.166;1.0032;-0.0044;0.2713;-4.1985;0.9542;-0.8855;30.0359;
4.189;1.0054;-0.0034;0.2724;-4.1298;0.9237;-0.9847;29.9418;
4.209;1.0088;-0.0054;0.2830;-4.3511;1.0000;-0.8931;30.0359;
4.229;1.0098;-0.0039;0.2874;-4.1069;1.1374;-0.8168;30.0359;
4.252;1.0137;-0.0012;0.2808;-4.1832;0.8931;-0.9771;30.0359;
4.271;1.0103;-0.0068;0.2758;-4.1145;1.1985;-0.8626;29.9418;
4.293;1.0120;-0.0034;0.2788;-4.2137;0.9542;-0.8626;29.9418;
4.314;1.0088;-0.0059;0.2716;-3.8550;0.9924;-0.8397;29.9418;
4.336;1.0081;-0.0066;0.2838;-4.0992;0.9008;-0.8702;29.9418;
4.357;1.0088;-0.0039;0.2780;-4.1756;1.0992;-0.9160;29.9418;
4.379;1.0039;0.0034;0.2713;-4.0229;1.0382;-0.8015;30.0359;
4.399;1.0044;-0.0024;0.2877;-4.0076;0.9771;-0.9084;30.0359;
4.420;1.0144;-0.0068;0.2813;-4.0382;0.9771;-0.9466;29.9418;
4.441;1.0122;0.0007;0.2799;-4.2519;1.0076;-0.8626;30.0359;
4.462;1.0103;-0.0076;0.2874;-4.1527;0.8015;-0.7405;30.0359;
4.483;1.0085;-0.0024;0.2772;-4.2290;1.0229;-0.9008;30.0359;
4.504;1.0129;-0.0042;0.2855;-4.0534;1.1832;-0.8550;29.9418;
4.525;1.0156;-0.0059;0.2688;-4.2137;1.0229;-0.7252;29.9418;
4.546;1.0066;-0.0012;0.2747;-4.3130;1.0000;-0.7176;30.1300;
4.567;1.0078;-0.0076;0.2749;-4.2519;1.1679;-0.9313;29.9418;
4.588;1.0120;-0.0024;0.2813;-4.3282;1.0687;-0.8931;29.9418;
4.609;1.0071;-0.0078;0.2802;-4.2595;0.9313;-0.9237;29.9418;
4.630;1.0085;-0.0071;0.2749;-4.0916;1.0153;-0.7557;29.9418;
4.651;1.0105;-0.0054;0.2769;-4.1069;1.0840;-0.9618;30.0359;
4.672;1.0137;-0.0051;0.2785;-4.2595;0.9542;-0.8244;30.0359;
4.693;1.0110;-0.0039;0.2855;-4.1527;1.1221;-0.8015;30.0359;
4.714;1.0181;-0.0076;0.2741;-4.2748;1.0763;-0.9008;30.0359;
4.735;1.0059;-0.0085;0.2747;-4.2824;0.9618;-0.8931;29.9418;
4.756;1.0046;-0.0044;0.2774;-4.1679;0.9542;-0.8092;29.9418;
4.777;1.0134;-0.0095;0.2838;-4.2290;1.0458;-1.0229;30.0359;
4.798;1.0161;-0.0027;0.2641;-4.1603;0.9237;-0.8855;30.0359;
4.819;1.0049;-0.0056;0.2705;-4.2443;0.8931;-0.8168;30.0359;
4.840;1.0127;-0.0034;0.2783;-4.3588;1.0611;-0.8702;29.9418;
4.861;1.0112;-0.0056;0.2777;-4.1679;1.0305;-0.8550;30.0359;
4.882;1.0100;-0.0049;0.2777;-4.1527;0.9695;-0.9618;30.0359;
4.903;1.0115;-0.0034;0.2755;-4.1450;1.0229;-0.9466;29.9418;
4.924;1.0063;0.0042;0.2741;-4.1679;0.9924;-0.7023;30.0359;
4.945;1.0071;-0.0059;0.2713;-4.1527;0.9695;-0.8244;29.9418;
4.966;1.0073;-0.0056;0.2763;-3.9313;0.9160;-0.9084;29.9418;
4.987;1.0063;-0.0032;0.2816;-4.2748;0.9389;-0.9542;30.0359;
5.009;1.0105;-0.0071;0.2724;-4.1145;1.0382;-0.7710;29.9418;
5.030;1.0071;-0.0071;0.2766;-4.3435;1.0305;-0.8702;30.0359;
5.051;1.0100;-0.0037;0.2763;-4.3893;1.1450;-1.0534;30.0359;
5.072;1.0071;-0.0029;0.2699;-4.3817;0.8550;-0.7176;29.9418;
5.093;1.0068;-0.0002;0.2747;-4.1756;1.0229;-0.9924;30.1300;
5.114;1.0129;-0.0112;0.2747;-4.1985;1.0305;-0.8779;30.0359;
5.135;1.0090;-0.0042;0.2677;-4.0992;0.8779;-0.8931;30.0359;
5.156;1.0071;-0.0071;0.2727;-4.1908;0.8473;-0.8321;30.0359;
5.177;1.0149;-0.0002;0.2838;-4.2443;1.0458;-1.0000;30.0359;
5.198;1.0059;-0.0085;0.2777;-4.2214;0.9924;-1.0076;29.9418;
5.219;1.0090;-0.0020;0.2783;-3.9542;0.9160;-0.9008;30.0359;
5.240;1.0037;-0.0020;0.2738;-4.1450;1.0992;-0.7786;30.0359;
5.261;1.0178;-0.0088;0.2763;-4.1985;0.9695;-0.7939;30.0359;
5.283;1.0154;-0.0088;0.2883;-4.0916;0.9160;-0.8397;29.9418;
5.304;1.0085;-0.0034;0.2741;-4.0382;1.0611;-0.9389;30.0359;
5.325;1.0088;-0.0007;0.2741;-4.0534;0.9695;-0.8626;29.9418;
5.346;1.0112;-0.0046;0.2774;-4.2672;0.9847;-0.8855;29.9418;
5.367;1.0120;-0.0088;0.2730;-4.2061;0.9466;-0.7023;29.9418;
5.388;1.0100;-0.0049;0.2783;-4.1832;0.9771;-0.9847;30.0359;
5.409;1.0125;-0.0125;0.2780;-4.1679;1.0992;-0.9008;30.0359;
5.430;1.0151;-0.0054;0.2833;-4.3817;1.0534;-1.0534;30.0359;
5.451;1.0095;-0.0024;0.2794;-4.3588;1.1374;-0.7099;30.0359;
5.472;1.0100;-0.0059;0.2733;-4.2519;1.1756;-0.9084;30.0359;
5.493;1.0103;-0.0071;0.2741;-4.1908;1.0840;-0.7863;30.0359;
5.514;1.0042;-0.0024;0.2794;-4.1756;1.0840;-0.7634;30.0359;
5.535;1.0010;0.0002;0.2730;-4.1603;1.1756;-0.9695;30.0359;
5.556;1.0120;-0.0046;0.2711;-4.1832;0.9924;-0.8702;29.9418;
5.577;1.0159;-0.0027;0.2708;-4.1221;0.9542;-0.9389;29.9418;
5.598;1.0100;-0.0061;0.2705;-4.3893;1.0076;-0.8015;30.0359;
5.620;1.0081;-0.0076;0.2827;-4.2137;1.0687;-0.6565;29.9418;
5.640;1.0107;-0.0098;0.2722;-4.2443;1.0534;-1.1527;30.0359;
5.661;1.0115;0.0044;0.2686;-4.1908;0.8244;-0.9542;29.9418;
5.682;1.0049;-0.0017;0.2724;-4.5191;0.8244;-0.8092;29.9418;
5.703;1.0129;-0.0068;0.2727;-3.9466;1.1603;-0.8168;30.1300;
5.724;1.0103;-0.0024;0.2821;-3.9771;0.9160;-0.7939;29.9418;
5.745;1.0085;-0.0037;0.2797;-4.1832;0.9160;-0.8092;30.0359;
5.767;1.0139;-0.0073;0.2735;-3.8702;1.0763;-0.7557;29.9418;
5.788;1.0144;-0.0095;0.2769;-4.1527;0.8397;-0.7481;30.0359;
5.809;1.0066;-0.0093;0.2783;-4.2977;1.0153;-0.8321;30.0359;
5.830;1.0107;-0.0017;0.2766;-4.0687;1.0458;-0.8550;30.0359;
5.851;1.0117;-0.0059;0.2744;-4.1527;1.1374;-0.8779;29.9418;
5.871;1.0093;-0.0012;0.2797;-4.2672;0.9771;-0.9237;29.9418;
5.893;1.0046;-0.0071;0.2777;-4.4580;1.0611;-0.8779;29.9418;
5.914;1.0127;-0.0027;0.2769;-4.0840;0.8321;-0.8168;30.0359;
5.935;1.0085;0.0034;0.2794;-4.2977;1.1145;-0.9008;30.0359;
5.955;1.0146;0.0015;0.2711;-4.2214;1.2137;-0.9695;30.0359;
5.976;1.0093;-0.0049;0.2869;-4.1756;1.0611;-0.9618;29.9418;
5.997;1.0103;-0.0085;0.2741;-4.0687;0.9618;-0.9084;30.0359;
6.018;1.0134;-0.0068;0.2869;-4.0000;1.1832;-0.9084;29.9418;
6.039;1.0117;-0.0024;0.2733;-4.2443;1.0534;-1.0458;30.0359;
6.060;1.0088;-0.0081;0.2749;-4.1832;0.9389;-0.7786;30.0359;
6.081;1.0129;-0.0024;0.2816;-4.1832;0.9237;-0.9389;30.0359;
6.102;1.0090;-0.0061;0.2716;-4.1374;1.1374;-0.9618;30.0359;
6.123;1.0129;-0.0063;0.2755;-4.3282;0.8779;-0.9237;30.0359;
6.144;1.0112;-0.0112;0.2780;-3.9771;0.9618;-0.8779;30.1300;
6.165;1.0120;-0.0046;0.2808;-4.3664;1.0840;-0.9542;30.0359;
6.187;1.0098;-0.0039;0.2769;-4.2137;1.0382;-0.9466;30.0359;
6.207;1.0146;-0.0017;0.2747;-4.2061;1.1908;-0.7023;30.1300;
6.229;1.0129;-0.0073;0.2802;-4.1145;0.9008;-0.8931;29.9418;
6.249;1.0125;-0.0027;0.2702;-4.0229;1.0534;-0.8702;30.0359;
6.270;1.0100;-0.0015;0.2741;-3.9847;1.1527;-1.0458;29.9418;
6.291;1.0103;-0.0076;0.2716;-4.2824;1.0687;-0.8702;30.0359;
6.312;1.0081;-0.0085;0.2794;-4.2824;1.0916;-0.7863;29.9418;
6.333;1.0088;-0.0022;0.2874;-4.3511;0.7634;-0.9237;30.0359;
6.354;1.0100;-0.0076;0.2766;-4.1374;1.0305;-0.7710;29.9418;
6.375;1.0090;-0.0002;0.2663;-4.3740;0.8779;-0.8473;29.9418;
6.396;1.0107;-0.0073;0.2813;-3.9542;1.2748;-0.6794;30.0359;
6.417;1.0098;-0.0027;0.2638;-4.0992;0.9542;-0.9084;30.0359;
6.438;1.0151;-0.0037;0.2730;-3.9847;1.0458;-0.8397;30.0359;
6.459;1.0112;-0.0090;0.2769;-4.2061;1.1145;-0.6794;29.9418;
6.481;1.0093;-0.0076;0.2772;-4.2061;1.0305;-0.8397;30.0359;
6.502;1.0063;-0.0044;0.2777;-4.1527;0.9389;-0.8092;29.9418;
6.523;1.0110;-0.0046;0.2747;-4.1908;0.9771;-0.8015;30.0359;
6.544;1.0063;-0.0068;0.2738;-4.1679;0.9924;-0.7328;30.0359;
6.571;1.0059;-0.0076;0.2830;-4.0534;1.0000;-0.8015;30.1300;
6.585;1.0098;-0.0073;0.2713;-4.2366;0.9542;-0.8931;29.9418;
6.607;1.0107;-0.0042;0.2766;-4.0305;1.0229;-0.6794;30.0359;
6.628;1.0132;-0.0034;0.2738;-4.1985;1.2061;-0.9466;30.0359;
6.649;1.0112;-0.0098;0.2830;-4.1908;1.1756;-0.8779;30.0359;
6.670;1.0122;0.0007;0.2711;-4.1832;0.9008;-0.9924;30.0359;
6.691;1.0127;0.0000;0.2694;-4.2672;1.0687;-0.7939;29.9418;
6.712;1.0061;-0.0032;0.2846;-4.3740;0.9084;-0.9466;30.0359;
6.733;1.0085;-0.0056;0.2838;-4.2366;0.9466;-0.8397;30.0359;
6.754;1.0027;-0.0029;0.2744;-4.0840;1.1221;-0.8779;30.0359;
6.775;1.0071;-0.0071;0.2860;-4.0305;0.9160;-0.8702;30.0359;
6.797;1.0073;-0.0039;0.2769;-4.1298;0.9847;-1.0076;30.0359;
6.818;1.0103;-0.0042;0.2821;-4.2290;0.9618;-0.8473;30.0359;
6.839;1.0090;-0.0107;0.2752;-4.1450;1.0000;-0.7176;30.0359;
6.860;1.0146;-0.0063;0.2783;-4.0916;0.9008;-0.8168;30.0359;
6.881;1.0115;-0.0022;0.2797;-4.1908;0.9466;-0.8550;30.0359;
6.902;1.0073;0.0000;0.2738;-4.1832;1.0458;-0.8397;29.9418;
6.923;1.0117;-0.0056;0.2752;-4.2901;0.9466;-0.9695;30.0359;
6.944;1.0054;-0.0093;0.2780;-4.1679;0.9847;-0.9542;29.9418;
6.965;1.0100;-0.0054;0.2724;-4.2366;1.0382;-0.9313;30.0359;
6.986;1.0105;-0.0039;0.2727;-4.1298;0.9542;-0.9924;30.0359;
7.007;1.0088;-0.0049;0.2794;-4.1069;0.9313;-0.9160;29.9418;
7.028;1.0068;-0.0056;0.2844;-4.0076;1.0458;-1.0076;29.9418;
7.049;1.0146;0.0012;0.2810;-4.2214;0.8473;-0.8473;29.9418;
7.070;1.0093;-0.0034;0.2705;-3.9008;1.0229;-1.0458;30.0359;
7.091;1.0081;-0.0002;0.2766;-4.3053;1.1527;-0.9160;30.0359;
7.112;1.0100;-0.0024;0.2727;-4.1603;1.0000;-0.8931;30.0359;
7.133;1.0122;-0.0078;0.2735;-4.2061;0.9008;-0.7634;29.9418;
7.154;1.0054;0.0000;0.2769;-4.0840;1.1069;-1.1527;29.9418;
7.175;1.0117;-0.0105;0.2738;-4.2595;1.1756;-0.7863;29.9418;
7.196;1.0146;0.0007;0.2827;-4.2366;0.9847;-0.7863;30.0359;
7.217;1.0161;-0.0076;0.2711;-4.3130;0.9466;-0.6718;30.0359;
7.238;1.0129;-0.0063;0.2722;-4.2824;0.9618;-0.6489;29.9418;
7.259;1.0085;-0.0071;0.2797;-4.1908;1.1832;-0.9542;29.9418;
7.280;1.0095;-0.0056;0.2785;-4.1985;1.0000;-0.6718;29.9418;
7.301;1.0129;-0.0063;0.2785;-4.1221;1.1527;-1.1221;30.0359;
7.322;1.0110;-0.0027;0.2794;-3.9084;1.0153;-1.0000;30.0359;
7.343;1.0129;-0.0039;0.2838;-4.1679;1.0916;-0.8473;30.0359;
7.365;1.0078;-0.0051;0.2749;-4.2214;1.0458;-0.8931;29.9418;
7.386;1.0095;-0.0044;0.2772;-4.0916;1.0611;-0.9160;30.0359;
7.407;1.0115;-0.0002;0.2810;-3.9618;0.8931;-0.9389;29.9418;
7.428;1.0127;-0.0049;0.2724;-4.3282;1.1527;-0.9237;29.9418;
7.449;1.0103;-0.0017;0.2727;-4.2748;0.9847;-0.8092;29.9418;
7.470;1.0059;-0.0056;0.2766;-4.1450;1.0382;-0.8092;29.9418;
7.491;1.0103;-0.0049;0.2705;-4.1298;0.9466;-1.0382;29.9418;
7.512;1.0090;0.0020;0.2783;-4.2290;1.2824;-0.7634;29.9418;
7.533;1.0107;-0.0081;0.2780;-4.0534;1.1069;-0.7176;30.0359;
7.554;1.0083;-0.0054;0.2797;-4.0992;0.9160;-0.8168;30.0359;
7.575;1.0054;0.0007;0.2741;-4.0763;0.9466;-0.7786;30.0359;
7.596;1.0083;-0.0054;0.2808;-4.2519;0.9771;-0.7099;29.9418;
7.617;1.0107;0.0017;0.2799;-4.3664;0.9237;-0.7786;30.0359;
7.639;1.0151;-0.0024;0.2824;-4.0153;1.1069;-1.1069;29.9418;
7.660;1.0061;-0.0093;0.2641;-4.1374;0.9008;-0.9160;29.9418;
7.681;1.0139;-0.0046;0.2744;-3.9847;1.0153;-0.6870;30.0359;
7.702;1.0132;-0.0032;0.2741;-4.0153;0.9313;-0.9618;30.0359;
7.723;1.0146;-0.0044;0.2760;-4.2595;1.1221;-0.7786;29.9418;
7.744;1.0085;0.0000;0.2716;-4.3969;1.3130;-0.9771;30.1300;
7.765;1.0129;-0.0032;0.2830;-4.1679;1.0916;-0.9389;30.1300;
7.786;1.0085;-0.0054;0.2766;-4.2595;1.0229;-0.7863;30.0359;
7.807;1.0105;-0.0068;0.2808;-4.1985;1.0000;-0.8702;29.9418;
7.828;1.0146;-0.0056;0.2824;-3.9466;0.9237;-0.8855;30.0359;
7.849;1.0066;-0.0012;0.2672;-4.2519;0.8550;-0.8321;30.0359;
7.870;1.0139;-0.0044;0.2727;-4.1450;1.0763;-0.9160;29.9418;
7.891;1.0083;-0.0037;0.2783;-4.1298;1.1069;-0.9084;30.0359;
7.912;1.0090;0.0034;0.2744;-4.1145;1.0458;-0.7481;29.9418;
7.933;1.0154;-0.0049;0.2899;-4.1832;1.3130;-0.8244;30.0359;
7.954;1.0164;-0.0015;0.2766;-4.1298;1.1527;-0.9160;30.0359;
7.975;1.0103;-0.0056;0.2774;-4.2061;1.1298;-0.8931;30.0359;
7.996;1.0115;-0.0032;0.2785;-4.1374;0.9924;-0.6412;30.0359;
8.017;1.0056;-0.0027;0.2702;-4.4198;1.1985;-0.8626;30.0359;
8.038;1.0129;-0.0061;0.2724;-4.3740;0.8779;-0.9313;30.0359;
8.059;1.0088;-0.0098;0.2719;-4.1069;1.0305;-0.9237;30.0359;
8.080;1.0137;-0.0098;0.2774;-4.2595;0.8168;-0.9389;30.0359;
8.101;1.0137;-0.0051;0.2783;-4.1374;1.1069;-0.9160;30.0359;
8.122;1.0098;-0.0054;0.2713;-4.1069;1.1527;-0.8168;30.0359;
8.143;1.0146;-0.0042;0.2824;-4.1374;1.0840;-0.9084;29.9418;
8.164;1.0137;-0.0059;0.2883;-4.1679;1.0916;-0.9618;30.0359;
8.185;1.0110;-0.0015;0.2777;-4.1527;1.0076;-0.8626;30.0359;
8.206;1.0098;-0.0022;0.2785;-4.1832;1.0000;-0.6870;29.9418;
8.227;1.0085;-0.0032;0.2697;-4.1298;1.1298;-0.9771;30.0359;
8.248;1.0107;-0.0100;0.2758;-4.3359;1.1679;-0.8550;30.0359;
8.269;1.0095;-0.0005;0.2752;-4.2443;1.0305;-0.7023;30.0359;
8.290;1.0078;-0.0027;0.2805;-4.1221;0.8168;-0.7939;29.9418;
8.311;1.0088;-0.0044;0.2780;-4.1832;0.9695;-0.9237;29.9418;
8.332;1.0063;-0.0039;0.2763;-4.2137;1.1527;-0.7405;30.0359;
8.353;1.0178;-0.0044;0.2805;-4.0992;0.9542;-0.7939;29.9418;
8.374;1.0159;-0.0071;0.2727;-4.1145;1.0534;-0.8473;30.0359;
8.395;1.0085;-0.0032;0.2827;-4.0992;1.0916;-0.9237;30.0359;
8.416;1.0081;-0.0056;0.2716;-4.0534;1.0000;-0.8931;30.0359;
8.437;1.0154;-0.0007;0.2747;-4.1374;0.9466;-0.9466;29.9418;
8.458;1.0112;-0.0078;0.2749;-4.2901;1.2443;-0.9847;29.9418;
8.479;1.0105;-0.0044;0.2752;-4.2061;0.9237;-0.8473;30.0359;
8.500;1.0071;-0.0061;0.2738;-4.2214;0.9542;-0.8473;29.9418;
8.521;1.0083;-0.0034;0.2699;-4.2901;1.2595;-1.1145;29.9418;
8.542;1.0142;-0.0046;0.2791;-3.9313;1.0611;-0.9771;30.0359;
8.563;1.0093;-0.0002;0.2719;-4.0992;1.0305;-0.8473;30.0359;
8.584;1.0063;-0.0078;0.2716;-4.1985;1.0000;-0.9542;30.0359;
8.605;1.0107;-0.0015;0.2747;-4.2595;1.0305;-0.8779;30.0359;
8.626;1.0081;-0.0022;0.2702;-4.1603;0.9389;-0.9695;30.0359;
8.647;1.0044;-0.0015;0.2769;-4.2901;0.9313;-0.7863;29.9418;
8.669;1.0110;-0.0022;0.2833;-3.9084;1.0687;-0.7634;30.0359;
8.691;1.0100;-0.0037;0.2785;-4.2137;1.0305;-0.8779;30.0359;
8.712;1.0088;-0.0017;0.2799;-4.2901;1.2214;-0.9160;30.0359;
8.733;1.0085;-0.0107;0.2794;-4.2748;1.0840;-0.8168;30.0359;
8.754;1.0081;-0.0061;0.2808;-3.9924;1.1527;-0.8779;29.9418;
8.775;1.0110;-0.0037;0.2802;-4.0992;0.9695;-0.8321;30.0359;
8.796;1.0063;-0.0083;0.2738;-4.0458;1.0916;-0.9466;30.1300;
8.817;1.0076;-0.0012;0.2783;-4.3511;1.0458;-0.6947;30.0359;
8.838;1.0110;-0.0015;0.2827;-4.4198;0.9389;-0.8626;30.0359;
8.859;1.0144;-0.0071;0.2699;-4.1221;0.9542;-0.7710;30.0359;
8.880;1.0022;-0.0103;0.2716;-4.1145;1.0534;-0.8931;30.0359;
8.901;1.0103;-0.0071;0.2727;-4.1527;1.0458;-0.8626;30.0359;
8.922;1.0142;-0.0088;0.2722;-4.1985;0.8321;-0.8168;29.9418;
8.943;1.0134;-0.0051;0.2821;-3.9771;1.1527;-1.0382;30.0359;
8.965;1.0105;-0.0090;0.2699;-4.1221;1.1069;-0.9466;29.9418;
8.986;1.0085;-0.0076;0.2794;-4.0840;0.9847;-0.7252;30.0359;
9.007;1.0112;-0.0037;0.2797;-3.9618;1.0763;-0.9618;29.9418;
9.028;1.0171;-0.0083;0.2791;-4.1603;1.2366;-0.8321;30.0359;
9.049;1.0107;-0.0081;0.2763;-4.0611;1.0534;-0.8168;30.0359;
9.070;1.0142;-0.0032;0.2805;-4.2061;0.9924;-0.7863;29.9418;
9.091;1.0071;-0.0022;0.2780;-3.9847;1.0534;-0.8397;30.0359;
9.112;1.0120;-0.0059;0.2805;-4.1298;0.9466;-0.9237;30.0359;
9.133;1.0117;-0.0063;0.2855;-4.3053;1.0916;-0.8092;30.0359;
9.154;1.0093;-0.0059;0.2735;-4.2519;0.9389;-0.8473;30.0359;
9.175;1.0129;-0.0032;0.2777;-4.2748;1.0153;-1.0611;29.9418;
9.196;1.0161;-0.0032;0.2749;-4.2901;1.1527;-0.7099;30.1300;
9.217;1.0115;-0.0012;0.2747;-4.1145;1.0229;-0.7634;29.9418;
9.238;1.0171;0.0000;0.2858;-3.9618;1.0534;-0.9008;29.9418;
9.259;1.0100;-0.0015;0.2708;-4.2290;0.9389;-0.9008;29.9418;
9.280;1.0120;-0.0032;0.2738;-4.1527;1.0992;-1.0229;29.9418;
9.301;1.0076;-0.0051;0.2760;-4.0305;0.9618;-0.8779;30.0359;
9.322;1.0110;-0.0083;0.2713;-4.1908;1.0305;-0.7634;29.9418;
9.343;1.0076;-0.0054;0.2863;-4.1527;1.0840;-0.8550;29.9418;
9.364;1.0112;-0.0007;0.2819;-4.1603;0.8473;-0.8626;30.0359;
9.385;1.0132;-0.0059;0.2724;-4.1603;1.1756;-0.9695;30.0359;
9.417;1.0093;-0.0107;0.2711;-4.3817;1.1527;-0.8015;30.0359;
9.427;1.0107;-0.0081;0.2766;-4.1679;1.1145;-0.6565;29.9418;
9.448;1.0132;-0.0085;0.2755;-4.2519;0.8550;-0.8168;30.0359;
9.469;1.0056;-0.0098;0.2774;-3.9466;1.2366;-0.9618;30.0359;
9.490;1.0093;-0.0068;0.2780;-3.9542;1.0458;-0.9160;30.0359;
9.511;1.0037;-0.0059;0.2774;-4.2443;1.0458;-0.9542;30.0359;
9.532;1.0149;-0.0039;0.2711;-4.2748;0.8931;-0.8626;30.0359;
9.553;1.0125;-0.0085;0.2819;-4.1450;1.2061;-0.8321;29.9418;
9.574;1.0132;-0.0034;0.2741;-4.2366;0.8855;-0.9618;30.0359;
9.595;1.0117;-0.0039;0.2749;-4.0458;0.8092;-0.8626;29.9418;
9.616;1.0154;-0.0024;0.2733;-4.2824;0.9924;-0.9237;29.9418;
9.637;1.0085;-0.0125;0.2816;-4.2595;1.1298;-0.8550;29.9418;
9.669;1.0081;-0.0029;0.2730;-4.1832;1.0458;-1.0534;30.0359;
9.679;1.0037;-0.0083;0.2791;-4.1908;1.0305;-0.9008;30.0359;
9.700;1.0088;-0.0042;0.2722;-4.1145;0.9237;-0.9008;29.9418;
9.721;1.0103;-0.0088;0.2810;-4.2137;0.9237;-0.8321;29.9418;
9.742;1.0095;-0.0081;0.2722;-4.1908;0.9924;-0.8626;30.0359;
9.763;1.0166;-0.0056;0.2813;-4.2443;0.9008;-0.8931;29.9418;
9.784;1.0078;-0.0076;0.2802;-4.2519;0.9924;-0.9237;30.0359;
9.805;1.0066;-0.0032;0.2810;-4.0000;1.0763;-0.7863;29.9418;
9.826;1.0105;-0.0059;0.2774;-4.1450;0.9084;-0.8092;29.9418;
9.847;1.0068;-0.0044;0.2738;-4.3053;1.0763;-0.9389;30.0359;
9.868;1.0127;-0.0066;0.2763;-4.4122;0.8931;-0.9237;29.9418;
9.889;1.0137;-0.0007;0.2799;-4.2290;0.9008;-0.5649;29.9418;
9.910;1.0125;-0.0037;0.2680;-4.2824;0.9237;-0.9389;30.0359;
9.931;1.0132;-0.0049;0.2716;-4.1985;0.9924;-1.1527;29.9418;
9.952;1.0081;-0.0076;0.2833;-4.1374;1.0916;-0.8092;29.9418;
9.973;1.0093;-0.0046;0.2783;-4.1832;1.0458;-0.7405;29.9418;
9.995;1.0090;-0.0076;0.2755;-4.0458;1.0229;-0.8931;30.0359;
10.017;1.0088;-0.0046;0.2649;-4.3359;1.0840;-0.9313;29.9418;
10.038;1.0112;-0.0002;0.2766;-4.2290;1.0076;-0.9466;30.0359;
10.059;1.0063;0.0002;0.2733;-4.1985;1.0687;-0.8321;30.0359;
10.080;1.0051;0.0007;0.2769;-4.0076;1.0382;-0.8168;30.1300;
10.101;1.0078;-0.0098;0.2824;-4.1603;0.9237;-1.0382;29.9418;
10.122;1.0098;-0.0010;0.2735;-4.0229;0.8855;-0.8244;30.0359;
10.143;1.0078;-0.0015;0.2749;-3.9695;1.0687;-0.7557;29.9418;
10.164;1.0063;-0.0061;0.2805;-4.0534;1.0916;-1.0076;29.9418;
10.185;1.0112;-0.0107;0.2686;-4.0916;0.7939;-0.9313;29.9418;
10.206;1.0103;-0.0066;0.2744;-4.1145;0.9160;-0.8779;29.9418;
10.227;1.0098;0.0000;0.2760;-4.3435;1.0763;-0.8092;29.9418;
10.248;1.0095;0.0000;0.2674;-4.4122;0.9847;-1.0840;30.0359;
10.269;1.0088;-0.0066;0.2802;-4.3435;0.9008;-0.8168;30.0359;
10.290;1.0103;-0.0015;0.2838;-4.0305;1.1756;-0.7634;29.9418;
10.311;1.0110;-0.0081;0.2763;-4.2672;1.0305;-0.8550;30.1300;
10.332;1.0081;-0.0012;0.2758;-4.0534;1.1756;-1.0916;29.9418;
10.353;1.0171;-0.0042;0.2805;-4.1832;1.0840;-0.7176;29.9418;
10.374;1.0144;-0.0068;0.2747;-4.1374;1.0382;-0.9084;30.0359;
10.395;1.0115;0.0049;0.2810;-4.0534;0.9542;-0.9695;29.9418;
10.416;1.0078;-0.0134;0.2791;-4.1298;1.0153;-0.9389;30.0359;
10.437;1.0112;-0.0020;0.2752;-4.1221;0.8473;-0.7863;30.1300;
10.458;1.0081;-0.0115;0.2697;-4.1374;1.0229;-0.9237;29.9418;
10.479;1.0051;-0.0073;0.2733;-4.3053;0.9924;-0.8779;29.9418;
10.501;1.0105;-0.0085;0.2719;-3.9542;1.0458;-0.7863;30.0359;
10.521;1.0085;-0.0051;0.2724;-4.1450;0.8779;-0.6870;29.9418;
10.542;1.0105;-0.0056;0.2785;-4.1679;1.0611;-1.0534;30.0359;
10.563;1.0112;-0.0071;0.2774;-4.0305;1.0458;-0.8092;30.0359;
10.584;1.0151;-0.0044;0.2672;-4.1756;1.2672;-0.7634;29.9418;
10.605;1.0090;-0.0044;0.2722;-4.1756;1.0534;-0.9389;30.0359;
10.626;1.0117;-0.0103;0.2805;-4.3969;1.2748;-0.9389;30.0359;
10.647;1.0122;-0.0042;0.2738;-4.0840;1.0153;-0.9618;30.0359;
10.669;1.0073;-0.0034;0.2783;-4.0611;1.0305;-0.7557;30.0359;
10.690;1.0112;-0.0020;0.2821;-4.1832;1.0992;-0.8015;30.0359;
10.711;1.0078;-0.0090;0.2661;-4.1145;0.9771;-1.0000;29.9418;
10.732;1.0107;-0.0029;0.2763;-4.2824;0.9389;-0.8855;29.9418;
10.753;1.0107;-0.0071;0.2805;-4.1221;1.0611;-0.7863;30.0359;
10.774;1.0137;-0.0046;0.2741;-4.2290;1.2366;-0.7405;29.9418;
10.795;1.0122;-0.0056;0.2763;-4.2824;0.9542;-0.8397;30.0359;
10.816;1.0125;-0.0034;0.2816;-4.1832;1.1374;-0.7863;30.0359;
10.837;1.0110;-0.0022;0.2705;-4.2443;0.9847;-0.7481;29.9418;
10.858;1.0120;-0.0090;0.2844;-4.0611;0.9466;-0.7405;29.9418;
10.879;1.0107;-0.0042;0.2719;-3.9008;0.9542;-0.8626;29.9418;
10.900;1.0095;-0.0093;0.2705;-4.0763;1.0611;-0.8321;29.9418;
10.921;1.0166;-0.0059;0.2855;-4.1527;1.0687;-0.9771;30.0359;
10.942;1.0042;0.0000;0.2869;-4.2977;1.0000;-0.9084;30.0359;
10.963;1.0095;-0.0098;0.2744;-4.3130;0.9847;-0.9466;30.0359;
10.984;1.0117;-0.0107;0.2733;-4.2290;1.0305;-0.8931;29.9418;
11.005;1.0117;-0.0059;0.2772;-4.2824;1.0611;-0.9237;30.0359;
11.026;1.0085;-0.0071;0.2735;-4.2214;1.2137;-0.9695;30.0359;
11.047;1.0149;-0.0002;0.2733;-4.0763;1.1374;-0.7863;30.0359;
11.068;1.0122;-0.0083;0.2760;-4.2366;0.9466;-0.9008;30.0359;
11.089;1.0093;-0.0088;0.2755;-4.1145;1.0076;-0.9160;30.0359;
11.110;1.0085;-0.0054;0.2738;-4.3206;1.0305;-0.8092;30.0359;
11.131;1.0098;-0.0044;0.2791;-4.0611;1.0763;-0.8473;30.1300;
11.152;1.0139;-0.0117;0.2760;-4.2137;0.9847;-0.9618;29.9418;
11.173;1.0120;-0.0017;0.2788;-4.0992;1.0382;-0.9084;29.9418;
11.194;1.0051;0.0007;0.2749;-4.3588;1.0229;-0.7481;30.0359;
11.215;1.0046;-0.0068;0.2763;-4.1527;1.1145;-0.9313;30.1300;
11.236;1.0125;-0.0063;0.2830;-4.0687;0.9695;-0.8550;29.9418;
11.257;1.0078;-0.0078;0.2741;-4.3588;1.1374;-0.9847;30.0359;
11.278;1.0066;-0.0061;0.2819;-4.2061;0.8168;-0.8015;29.9418;
11.299;1.0088;-0.0071;0.2785;-4.0687;1.1527;-0.9695;30.0359;
11.321;1.0122;-0.0044;0.2738;-4.2061;0.8626;-1.1221;29.9418;
11.343;1.0115;-0.0042;0.2755;-4.2061;1.1450;-0.9771;29.9418;
11.364;1.0095;-0.0002;0.2649;-4.0611;0.9924;-0.8931;30.1300;
11.385;1.0098;-0.0022;0.2691;-4.2672;1.2443;-0.9389;29.9418;
11.406;1.0105;-0.0020;0.2741;-4.2290;1.0305;-0.9313;29.9418;
11.427;1.0127;-0.0029;0.2805;-4.2290;0.8855;-0.9084;29.8476;
11.448;1.0071;-0.0012;0.2752;-3.9466;1.1145;-0.7863;30.0359;
11.469;1.0103;-0.0059;0.2666;-4.2137;1.0000;-0.8931;30.0359;
11.491;1.0146;-0.0027;0.2794;-4.1679;0.9847;-0.8473;29.9418;
11.512;1.0066;-0.0027;0.2683;-4.2519;0.9847;-0.8702;29.9418;
11.533;1.0122;-0.0012;0.2760;-4.1679;1.0076;-0.8779;30.0359;
11.553;1.0159;-0.0081;0.2755;-4.2061;1.0687;-1.1985;30.0359;
11.574;1.0112;-0.0078;0.2733;-4.0840;1.1679;-0.8855;30.0359;
11.595;1.0098;-0.0007;0.2769;-4.1298;1.0305;-0.9389;30.0359;
11.616;1.0112;-0.0081;0.2716;-4.0840;1.0840;-0.9160;30.0359;
11.638;1.0117;-0.0085;0.2722;-4.1221;1.0534;-1.0611;29.9418;
11.658;1.0125;-0.0029;0.2763;-4.0687;0.9466;-0.6336;29.9418;
11.679;1.0137;-0.0032;0.2702;-4.0458;0.9695;-0.8626;29.9418;
11.700;1.0078;0.0007;0.2797;-4.0763;0.9466;-0.9008;30.0359;
11.721;1.0139;-0.0049;0.2799;-4.0153;1.1908;-0.8779;30.0359;
11.742;1.0095;-0.0083;0.2774;-4.3817;0.9924;-0.8473;29.9418;
11.763;1.0093;-0.0042;0.2733;-4.1603;0.9847;-0.7252;30.0359;
11.784;1.0081;-0.0042;0.2686;-4.0687;1.0153;-0.8779;29.9418;
11.805;1.0076;-0.0051;0.2735;-4.1756;1.0687;-0.9771;29.8476;
11.826;1.0156;-0.0100;0.2722;-4.2137;1.0153;-0.5420;30.0359;
11.847;1.0088;-0.0012;0.2769;-4.1985;1.1221;-0.7634;30.0359;
11.868;1.0164;-0.0073;0.2763;-4.3053;1.1679;-0.9389;29.9418;
11.889;1.0149;-0.0090;0.2808;-4.0763;0.9771;-0.7710;29.9418;
11.910;1.0132;-0.0039;0.2658;-4.0229;0.9771;-0.7786;29.9418;
11.931;1.0127;-0.0115;0.2780;-4.1679;1.0382;-0.8473;30.0359;
11.952;1.0142;-0.0012;0.2647;-4.3588;1.1221;-0.8702;30.0359;
11.973;1.0073;-0.0073;0.2683;-4.1756;1.1298;-0.7481;29.9418;
11.995;1.0115;-0.0056;0.2791;-4.1298;1.0458;-0.9313;29.9418;
12.016;1.0085;0.0020;0.2830;-4.0305;1.0687;-0.7481;29.9418;
12.037;1.0073;-0.0029;0.2749;-4.1679;0.7939;-0.9313;30.0359;
12.058;1.0063;-0.0110;0.2808;-4.2366;0.9466;-0.8092;30.0359;
12.079;1.0129;-0.0029;0.2719;-4.1221;1.0840;-0.9160;30.0359;
12.100;1.0095;-0.0010;0.2766;-4.2519;0.9008;-0.9924;30.0359;
12.121;1.0203;-0.0090;0.2813;-4.1679;1.0534;-0.8015;30.0359;
12.142;1.0134;0.0002;0.2816;-4.2290;1.0229;-0.8397;30.0359;
12.163;1.0107;-0.0007;0.2799;-4.1985;1.0076;-0.8397;29.9418;
12.184;1.0068;-0.0076;0.2708;-4.1832;1.0382;-0.8931;30.0359;
12.205;1.0115;-0.0071;0.2819;-4.1298;0.9389;-0.8626;29.9418;
12.226;1.0120;-0.0105;0.2816;-3.9466;0.9160;-0.9542;30.0359;
12.247;1.0110;-0.0022;0.2724;-4.1221;0.9389;-0.8855;29.9418;
12.268;1.0168;-0.0051;0.2758;-4.2443;1.0840;-0.8550;29.9418;
12.289;1.0112;-0.0042;0.2774;-4.0229;0.9924;-0.8321;29.9418;
12.310;1.0093;-0.0081;0.2760;-4.0687;0.8473;-0.9084;30.0359;
12.331;1.0095;-0.0051;0.2730;-4.0687;0.5267;-0.8550;30.0359;
12.352;1.0078;-0.0044;0.2860;-3.9847;1.0305;-0.7405;30.0359;
12.373;1.0139;-0.0049;0.2838;-4.3359;0.9618;-0.8779;29.8476;
12.394;1.0112;-0.0054;0.2749;-4.1756;0.9542;-0.9389;30.1300;
12.415;1.0112;-0.0002;0.2785;-4.1985;0.9924;-0.9237;29.9418;
12.436;1.0105;-0.0044;0.2808;-4.0000;1.1603;-0.6641;29.9418;
12.457;1.0142;-0.0007;0.2744;-4.0382;1.1450;-0.9008;29.9418;
12.480;1.0142;-0.0063;0.2716;-4.2061;1.0687;-0.8550;29.9418;
12.499;1.0115;-0.0073;0.2758;-4.1145;1.1298;-0.7099;29.9418;
12.520;1.0103;-0.0051;0.2744;-4.1832;1.0229;-0.9771;29.9418;
12.541;1.0039;-0.0010;0.2747;-4.0076;1.1221;-0.8702;29.9418;
12.568;1.0061;-0.0002;0.2738;-4.2519;0.9313;-0.7099;30.0359;
12.583;1.0115;-0.0076;0.2722;-3.9466;1.0840;-0.6641;30.0359;
12.604;1.0134;0.0000;0.2766;-4.2901;1.0382;-0.8779;29.9418;
12.625;1.0105;-0.0068;0.2683;-4.1527;0.9389;-0.9237;30.0359;
12.647;1.0112;-0.0063;0.2749;-4.2595;1.0229;-0.9160;30.0359;
12.669;1.0115;-0.0051;0.2805;-4.1145;1.1679;-0.7405;30.0359;
12.690;1.0098;-0.0044;0.2816;-4.2595;0.9924;-0.9084;29.9418;
12.711;1.0107;-0.0049;0.2758;-4.1832;0.8092;-0.8626;30.0359;
12.732;1.0063;-0.0103;0.2688;-4.3130;0.9160;-0.9237;29.9418;
12.753;1.0063;0.0002;0.2733;-4.1908;1.2061;-0.7939;30.0359;
12.774;1.0110;-0.0027;0.2688;-4.1603;0.9237;-0.9084;30.0359;
12.795;1.0059;-0.0078;0.2755;-4.3282;0.8855;-0.8931;30.0359;
12.816;1.0112;-0.0063;0.2705;-4.1603;1.1298;-0.7481;29.9418;
12.837;1.0117;-0.0029;0.2777;-4.2443;0.9466;-0.9618;30.0359;
12.858;1.0088;-0.0093;0.2735;-4.1908;0.9237;-0.9847;30.0359;
12.879;1.0088;-0.0081;0.2749;-4.2748;0.8702;-0.7634;30.0359;
12.916;1.0112;-0.0061;0.2813;-4.3511;0.9160;-0.8626;30.0359;
12.921;1.0112;-0.0061;0.2813;-4.2519;1.0382;-0.8244;29.9418;
12.943;1.0151;-0.0059;0.2747;-4.2672;1.0763;-0.8244;29.9418;
12.964;1.0146;-0.0076;0.2855;-4.0763;1.2137;-0.9084;30.0359;
12.985;1.0120;-0.0044;0.2830;-4.1679;0.9084;-0.8626;29.9418;
13.006;1.0078;-0.0007;0.2760;-4.1756;0.8779;-0.9389;29.9418;
13.027;1.0112;-0.0024;0.2799;-4.1450;0.9847;-0.8473;29.9418;
13.048;1.0100;-0.0085;0.2747;-4.1527;1.1374;-0.6565;30.0359;
13.069;1.0085;-0.0046;0.2788;-4.1832;1.0916;-0.8473;29.9418;
13.090;1.0044;-0.0107;0.2772;-4.0611;1.1908;-0.8779;29.9418;
13.111;1.0132;-0.0085;0.2716;-4.2214;1.1298;-1.0916;30.0359;
13.132;1.0151;-0.0098;0.2735;-4.1985;1.0992;-0.8473;30.0359;
13.153;1.0076;-0.0034;0.2744;-4.0000;0.7328;-0.7939;29.9418;
13.174;1.0061;-0.0054;0.2763;-4.0763;1.1374;-0.9924;29.9418;
13.195;1.0103;-0.0046;0.2730;-4.2214;1.0305;-0.9313;30.0359;
13.216;1.0122;-0.0078;0.2833;-4.2061;0.9542;-0.8550;29.9418;
13.237;1.0188;-0.0071;0.2727;-4.0687;0.8855;-0.7634;30.1300;
13.258;1.0149;-0.0027;0.2777;-4.1145;1.0000;-0.9084;29.9418;
13.279;1.0044;-0.0071;0.2802;-4.2901;0.8168;-0.7557;30.0359;
13.300;1.0071;-0.0076;0.2702;-4.2672;0.9847;-0.9618;29.9418;
13.333;1.0059;-0.0012;0.2741;-4.2366;0.9389;-1.0229;29.9418;
13.342;1.0063;-0.0107;0.2772;-4.0916;1.1145;-0.7023;30.0359;
13.363;1.0107;-0.0063;0.2772;-4.3130;0.9237;-0.8092;30.0359;
13.384;1.0115;-0.0020;0.2833;-4.0076;1.0611;-0.9924;29.9418;
13.405;1.0137;-0.0039;0.2747;-4.3969;1.1298;-0.8168;29.9418;
13.426;1.0078;-0.0061;0.2830;-4.0305;1.0687;-0.8855;29.9418;
13.447;1.0139;0.0010;0.2744;-4.1985;1.0382;-1.0611;29.9418;
13.468;1.0120;-0.0046;0.2835;-4.1450;1.0534;-0.9237;30.0359;
13.489;1.0098;-0.0068;0.2830;-4.1298;1.0916;-0.9084;29.9418;
13.510;1.0156;-0.0054;0.2769;-4.3740;1.1527;-0.8244;29.9418;
13.531;1.0063;0.0002;0.2705;-4.1985;0.9160;-0.9160;30.0359;
13.552;1.0090;-0.0095;0.2810;-4.2595;1.0840;-0.7939;30.0359;
13.573;1.0063;-0.0098;0.2716;-4.2748;0.8473;-0.8244;30.0359;
13.594;1.0127;-0.0115;0.2747;-4.1374;1.0458;-0.9008;29.9418;
13.615;1.0071;-0.0073;0.2835;-4.0916;0.9771;-0.8244;30.0359;
13.636;1.0103;-0.0049;0.2794;-4.2214;0.8168;-0.8092;30.0359;
13.657;1.0066;-0.0002;0.2694;-4.1527;0.8855;-0.6870;29.9418;
13.679;1.0063;-0.0107;0.2780;-4.0840;0.9847;-0.8931;29.9418;
13.699;1.0110;-0.0022;0.2724;-4.1603;1.0305;-0.7099;30.0359;
13.720;1.0110;-0.0032;0.2785;-4.2061;1.1298;-0.8626;30.0359;
13.741;1.0071;-0.0063;0.2733;-4.1679;0.8702;-0.8092;29.9418;
13.762;1.0093;-0.0078;0.2741;-4.4809;0.9389;-0.7405;29.9418;
13.783;1.0117;0.0005;0.2797;-4.3282;1.0382;-0.9771;30.0359;
13.804;1.0078;-0.0042;0.2769;-4.0840;0.7176;-0.8168;29.9418;
13.825;1.0068;-0.0061;0.2799;-4.2214;0.9466;-0.7710;29.9418;
13.846;1.0093;-0.0103;0.2824;-4.0076;1.1527;-1.0305;30.0359;
13.867;1.0107;0.0000;0.2755;-4.0916;1.0611;-0.8779;30.0359;
13.888;1.0146;-0.0034;0.2852;-4.1832;1.0305;-0.9084;29.9418;
13.909;1.0078;-0.0063;0.2752;-3.9618;0.9924;-1.0763;30.0359;
13.930;1.0127;-0.0046;0.2788;-4.1527;1.1374;-0.8244;29.9418;
13.951;1.0093;-0.0034;0.2785;-4.3053;1.1145;-0.8321;29.9418;
13.973;1.0137;-0.0054;0.2808;-3.9924;0.8244;-0.9618;30.0359;
13.995;1.0081;-0.0090;0.2783;-4.3130;1.2595;-0.8855;30.0359;
14.016;1.0112;-0.0022;0.2749;-3.8473;1.0305;-0.8931;29.9418;
14.037;1.0090;-0.0071;0.2747;-4.2519;1.0763;-0.8015;30.0359;
14.058;1.0066;-0.0095;0.2747;-4.2672;0.9924;-0.8779;30.0359;
14.079;1.0110;-0.0061;0.2713;-4.3435;1.2366;-0.9084;30.0359;
14.100;1.0061;-0.0022;0.2694;-4.1985;0.9313;-0.9084;30.0359;
14.121;1.0090;-0.0081;0.2733;-4.1679;1.0076;-0.8626;29.9418;
14.142;1.0095;-0.0039;0.2810;-4.0687;1.0611;-0.9771;29.9418;
14.163;1.0103;-0.0076;0.2738;-4.3588;0.9084;-0.8702;29.9418;
14.184;1.0105;-0.0022;0.2730;-4.4504;1.1679;-0.6031;29.9418;
14.205;1.0110;-0.0051;0.2769;-3.9542;1.0153;-0.7939;30.1300;
14.226;1.0061;-0.0032;0.2858;-4.3206;1.0458;-0.9008;30.0359;
14.247;1.0142;-0.0046;0.2733;-4.3588;1.2672;-0.8931;30.0359;
14.269;1.0029;0.0012;0.2744;-4.0000;0.9389;-0.8397;30.0359;
14.290;1.0105;-0.0066;0.2763;-4.1145;1.1603;-0.5420;30.0359;
14.311;1.0134;-0.0012;0.2741;-4.1298;1.0916;-0.9237;30.0359;
14.332;1.0046;-0.0020;0.2680;-4.1069;1.2672;-0.9008;29.9418;
14.353;1.0105;-0.0027;0.2691;-4.3282;1.0305;-0.8244;29.9418;
14.374;1.0039;-0.0098;0.2808;-4.3282;1.1908;-0.6641;30.0359;
14.395;1.0071;-0.0056;0.2766;-4.2595;1.1069;-0.9618;30.0359;
14.416;1.0085;0.0020;0.2774;-4.1221;1.1527;-1.0229;29.9418;
14.437;1.0120;0.0029;0.2766;-3.9542;1.0076;-0.8702;30.0359;
14.458;1.0134;-0.0073;0.2855;-4.2443;1.0076;-0.8244;29.9418;
14.479;1.0144;-0.0015;0.2735;-4.1298;1.1374;-0.8473;29.9418;
14.500;1.0085;-0.0107;0.2791;-4.1908;0.9695;-0.9160;29.9418;
14.521;1.0110;-0.0068;0.2758;-4.1603;1.0687;-0.8168;29.9418;
14.542;1.0098;-0.0066;0.2666;-4.1756;1.0534;-0.9008;30.0359;
14.563;1.0122;-0.0078;0.2819;-4.4427;1.0763;-0.8702;30.0359;
14.584;1.0100;-0.0042;0.2788;-4.1298;0.9924;-0.8473;29.9418;
14.605;1.0115;-0.0071;0.2799;-4.3053;1.0611;-1.0000;30.0359;
14.626;1.0105;-0.0012;0.2824;-4.1450;1.0153;-0.7786;29.9418;
14.647;1.0063;-0.0034;0.2694;-4.2748;1.2061;-0.9313;29.9418;
14.668;1.0105;-0.0039;0.2785;-4.2595;0.9160;-1.0076;30.0359;
14.689;1.0149;-0.0063;0.2755;-4.2443;1.0382;-0.8931;29.9418;
14.710;1.0078;-0.0024;0.2891;-4.1603;0.9847;-0.9084;30.0359;
14.731;1.0049;-0.0066;0.2802;-4.0687;0.9008;-0.8779;30.0359;
14.752;1.0049;-0.0085;0.2772;-4.0763;1.1527;-0.8702;29.9418;
14.773;1.0054;-0.0042;0.2769;-4.2977;1.0611;-0.8244;30.0359;
14.794;1.0112;-0.0117;0.2680;-4.2366;1.1069;-0.8855;30.0359;
14.815;1.0164;-0.0046;0.2880;-4.1756;1.0305;-0.8244;30.0359;
14.836;1.0088;-0.0081;0.2819;-4.2901;0.9924;-0.8473;29.9418;
14.857;1.0134;-0.0059;0.2747;-4.3740;1.0916;-1.0763;30.0359;
14.878;1.0154;-0.0027;0.2885;-4.1450;1.1374;-0.9160;30.0359;
14.899;1.0127;-0.0046;0.2755;-4.2901;1.0305;-0.9237;29.9418;
14.921;1.0081;-0.0093;0.2755;-4.1527;0.9695;-0.8702;29.9418;
14.942;1.0066;-0.0049;0.2824;-4.1450;1.1603;-0.8244;30.0359;
14.963;1.0076;-0.0029;0.2777;-4.0916;1.0458;-0.7176;29.9418;
14.984;1.0103;-0.0071;0.2774;-4.1069;0.8779;-0.9084;30.0359;
15.005;1.0532;0.0105;0.2866;-4.1069;0.3435;-1.3893;29.9418;
15.026;0.9890;-0.0078;0.2819;-3.9313;1.5954;-0.5802;29.8476;
15.047;1.0149;-0.0049;0.2688;-4.1985;0.8626;-0.7710;30.0359;
15.068;1.0078;-0.0068;0.2855;-4.1756;0.8931;-0.9389;30.0359;
15.089;1.0264;-0.0083;0.2672;-4.2366;1.0611;-0.9466;30.0359;
15.111;1.0132;-0.0112;0.2716;-4.0611;1.0000;-0.9771;29.9418;
15.132;1.0103;-0.0029;0.2716;-4.0992;0.8931;-0.8855;30.0359;
15.153;1.0134;-0.0034;0.2813;-4.1298;0.9847;-1.0153;29.9418;
15.174;1.0081;-0.0071;0.2797;-4.0611;0.9695;-1.0458;29.9418;
15.195;1.0046;-0.0046;0.2838;-4.1145;0.9237;-0.8550;29.9418;
15.216;1.0134;-0.0034;0.2780;-4.1298;1.1985;-0.9313;30.0359;
15.237;1.0115;-0.0076;0.2741;-4.2977;1.0916;-0.8397;29.9418;
15.258;1.0073;-0.0032;0.2694;-4.1145;0.9924;-0.9847;30.0359;
15.279;1.0076;-0.0042;0.2783;-4.2137;0.9160;-1.0229;29.9418;
15.300;1.0132;-0.0007;0.2813;-4.1679;0.9237;-0.7634;30.0359;
15.321;1.0129;-0.0027;0.2760;-4.1985;1.0000;-0.9237;29.9418;
15.342;1.0100;-0.0061;0.2794;-4.3130;1.0229;-1.0153;29.9418;
15.363;1.0134;-0.0100;0.2802;-4.0534;0.8321;-0.7557;30.0359;
15.384;1.0107;-0.0032;0.2758;-4.3511;1.1603;-0.8855;30.0359;
15.405;1.0098;0.0005;0.2888;-4.2214;1.0763;-1.0229;30.0359;
15.426;1.0073;-0.0015;0.2766;-4.3206;0.8321;-0.8855;30.0359;
15.447;1.0059;-0.0063;0.2785;-4.2977;0.8702;-0.7405;30.0359;
15.468;1.0132;-0.0068;0.2749;-4.2214;1.2366;-1.0534;30.0359;
15.489;1.0098;-0.0081;0.2766;-4.2901;0.8702;-0.8244;30.0359;
15.510;1.0159;-0.0063;0.2738;-4.4733;0.9084;-0.7481;29.9418;
15.531;1.0125;-0.0037;0.2805;-4.1069;1.0153;-1.0229;29.9418;
15.552;1.0066;0.0032;0.2802;-4.1756;1.0534;-0.8550;30.0359;
15.573;1.0098;-0.0027;0.2752;-3.9618;0.8473;-0.7176;30.0359;
15.594;1.0132;-0.0042;0.2777;-4.0534;1.3435;-0.7786;29.9418;
15.615;1.0151;-0.0068;0.2724;-4.1221;0.9389;-0.8855;30.0359;
15.636;1.0212;-0.0010;0.2766;-4.3130;1.0305;-0.8550;29.9418;
15.657;1.0059;-0.0012;0.2813;-4.2290;0.9237;-0.8931;30.0359;
15.678;1.0078;-0.0073;0.2858;-4.2672;0.9313;-0.6947;30.0359;
15.699;1.0125;-0.0081;0.2730;-4.0153;1.1985;-0.8473;30.0359;
15.720;1.0095;-0.0022;0.2758;-4.2595;1.1069;-0.8855;29.9418;
15.741;1.0137;-0.0044;0.2702;-4.2061;0.9084;-0.8626;30.0359;
15.762;1.0095;-0.0068;0.2694;-4.1450;0.9313;-0.9924;29.9418;
15.783;1.0081;-0.0056;0.2799;-4.0916;0.9008;-0.9237;30.0359;
15.804;1.0159;-0.0076;0.2783;-4.2672;1.0534;-0.9008;30.0359;
15.825;1.0132;-0.0010;0.2780;-4.2748;1.0458;-0.9695;29.9418;
15.846;1.0088;-0.0081;0.2763;-4.0992;0.9695;-1.0458;29.9418;
15.867;1.0044;-0.0054;0.2774;-3.9847;0.8244;-1.0534;29.9418;
15.888;1.0098;-0.0054;0.2797;-4.1450;1.0458;-0.7557;30.0359;
15.909;1.0122;-0.0012;0.2816;-4.2061;1.1603;-0.8092;30.0359;
15.930;1.0103;-0.0017;0.2727;-4.0000;1.0840;-0.7939;30.0359;
15.951;1.0088;0.0010;0.2747;-4.1527;0.8931;-0.7634;30.0359;
15.972;1.0117;-0.0029;0.2733;-4.2061;0.9389;-0.8550;29.9418;
15.993;1.0107;-0.0076;0.2785;-4.0992;1.0687;-0.8473;30.0359;
16.014;1.0095;-0.0039;0.2674;-3.9542;0.9924;-0.8244;29.9418;
16.035;1.0107;-0.0024;0.2777;-4.1985;0.7939;-0.7252;30.0359;
16.056;1.0125;-0.0037;0.2783;-3.9847;1.0687;-0.9084;30.0359;
16.077;1.0103;-0.0110;0.2866;-4.1756;1.0687;-1.0076;29.9418;
16.098;1.0139;-0.0068;0.2816;-4.2824;1.0992;-0.8015;29.9418;
16.119;1.0110;-0.0049;0.2838;-4.1450;1.0916;-1.0305;30.0359;
16.141;1.0115;-0.0051;0.2749;-4.0382;0.9847;-0.7328;29.8476;
16.163;1.0151;-0.0049;0.2755;-4.2290;1.1756;-0.8702;30.0359;
16.184;1.0117;-0.0015;0.2713;-3.9389;1.0916;-0.8550;29.9418;
16.205;1.0098;-0.0061;0.2791;-4.1221;1.0076;-0.8321;29.8476;
16.226;1.0098;-0.0076;0.2808;-4.1145;0.9924;-0.8244;30.0359;
16.247;1.0129;-0.0076;0.2741;-4.2519;0.9847;-0.6489;29.9418;
16.268;1.0081;-0.0007;0.2733;-4.2214;0.9160;-0.9771;30.0359;
16.289;1.0059;-0.0061;0.2741;-4.3969;1.1908;-0.8015;29.9418;
16.310;1.0151;-0.0071;0.2774;-4.2824;0.9160;-0.9771;29.9418;
16.331;1.0088;-0.0012;0.2755;-3.9924;1.0000;-0.7481;29.9418;
16.352;1.0122;-0.0032;0.2758;-4.3053;1.0687;-0.9313;30.0359;
16.373;1.0095;-0.0032;0.2747;-3.9466;1.0382;-0.7710;30.1300;
16.394;1.0125;-0.0054;0.2777;-4.0687;0.9924;-0.9160;30.0359;
16.415;1.0056;-0.0059;0.2788;-4.1069;1.0305;-0.7252;29.9418;
16.437;1.0139;-0.0085;0.2716;-4.2061;0.9389;-0.8702;30.0359;
16.458;1.0132;-0.0095;0.2708;-4.1450;1.0076;-0.9008;29.9418;
16.479;1.0071;-0.0083;0.2683;-4.0382;0.9924;-0.8931;30.0359;
16.500;1.0081;-0.0049;0.2805;-4.0611;1.0916;-0.7939;29.9418;
16.521;1.0107;-0.0007;0.2702;-4.1069;1.1450;-0.7328;29.9418;
16.542;1.0095;-0.0046;0.2819;-4.0687;1.0763;-0.9313;30.0359;
16.563;1.0110;-0.0042;0.2788;-4.1527;1.1450;-0.9389;30.0359;
16.584;1.0068;-0.0046;0.2777;-4.2595;1.0153;-0.9084;30.0359;
16.605;1.0125;-0.0007;0.2763;-4.3511;0.9313;-0.7786;29.8476;
16.626;1.0112;-0.0049;0.2772;-4.2137;1.1450;-1.0229;29.9418;
16.647;1.0183;-0.0042;0.2724;-4.2290;1.0687;-1.0458;30.0359;
16.668;1.0090;-0.0054;0.2769;-4.1145;1.0687;-0.7099;30.0359;
16.689;1.0164;-0.0044;0.2752;-4.0992;0.9924;-0.8702;29.9418;
16.710;1.0137;-0.0032;0.2794;-4.2061;0.8626;-0.8779;29.9418;
16.731;1.0068;0.0020;0.2827;-4.1756;0.8931;-0.8244;29.9418;
16.752;1.0139;-0.0125;0.2777;-4.1069;0.8626;-1.0687;30.0359;
16.773;1.0044;-0.0039;0.2780;-4.1450;0.7710;-1.0000;30.0359;
16.794;1.0093;-0.0107;0.2833;-4.2061;0.9771;-0.9084;29.9418;
16.815;1.0105;-0.0044;0.2735;-4.2366;0.9389;-0.6947;30.0359;
16.836;1.0068;-0.0068;0.2705;-4.3359;1.1298;-0.9084;30.0359;
16.857;1.0156;0.0000;0.2774;-4.1221;1.0000;-0.8931;29.9418;
16.878;1.0098;-0.0034;0.2794;-4.1221;0.8244;-0.8321;30.0359;
16.900;1.0085;-0.0037;0.2860;-4.3206;0.7634;-0.7405;30.0359;
16.920;1.0090;-0.0076;0.2760;-4.3359;0.9160;-0.9008;29.9418;
16.941;1.0122;-0.0054;0.2785;-3.9924;0.8244;-0.8550;30.0359;
16.962;1.0100;-0.0098;0.2799;-4.1450;1.0305;-0.7786;30.0359;
16.983;1.0093;-0.0063;0.2763;-4.0305;1.1756;-0.9924;30.0359;
17.004;1.0137;-0.0005;0.2719;-4.2519;1.1756;-0.9542;30.0359;
17.025;1.0081;-0.0046;0.2808;-4.4198;0.8779;-0.8855;30.0359;
17.046;1.0081;-0.0032;0.2830;-4.2977;1.1450;-0.8092;29.9418;
17.067;1.0122;-0.0020;0.2747;-4.2290;1.1298;-0.8626;30.0359;
17.089;1.0107;-0.0044;0.2772;-4.2595;0.8626;-0.8702;30.0359;
17.110;1.0107;-0.0044;0.2738;-4.2977;1.0763;-0.8931;30.0359;
17.131;1.0137;-0.0037;0.2788;-4.0763;1.1298;-0.8244;30.0359;
17.152;1.0093;-0.0017;0.2699;-4.2748;1.0382;-0.6718;29.9418;
17.173;1.0117;-0.0051;0.2772;-4.1298;1.2824;-0.9847;29.8476;
17.194;1.0103;-0.0071;0.2769;-4.2748;1.0458;-0.7328;30.0359;
17.215;1.0112;-0.0137;0.2752;-4.3053;1.2748;-0.7863;30.0359;
17.236;1.0110;-0.0044;0.2777;-4.0916;1.0153;-0.9313;30.0359;
17.257;1.0127;-0.0024;0.2797;-4.1603;0.9924;-0.7786;29.9418;
17.279;1.0110;-0.0073;0.2672;-4.2748;1.1145;-0.9160;29.9418;
17.301;1.0090;-0.0034;0.2824;-4.3435;1.2061;-0.8015;30.0359;
17.322;1.0112;-0.0037;0.2802;-4.3588;1.0687;-0.9008;29.9418;
17.343;1.0115;-0.0068;0.2785;-4.3435;0.8702;-0.8321;30.0359;
17.363;1.0107;-0.0076;0.2785;-3.9771;1.1908;-0.7634;29.9418;
17.384;1.0071;-0.0054;0.2808;-4.1374;1.0992;-0.7328;30.0359;
17.405;1.0132;0.0002;0.2833;-4.0916;1.0382;-0.7405;29.9418;
17.426;1.0059;-0.0056;0.2691;-4.2595;1.0153;-0.7939;29.9418;
17.447;1.0081;-0.0039;0.2785;-4.1985;1.0458;-1.0611;30.0359;
17.468;1.0032;-0.0039;0.2741;-4.3206;1.1298;-0.9542;30.0359;
17.489;1.0061;-0.0029;0.2791;-4.2519;0.9695;-0.7710;29.9418;
17.510;1.0059;-0.0046;0.2766;-4.1756;1.0382;-0.6641;29.9418;
17.531;1.0132;-0.0034;0.2719;-4.1450;1.0458;-0.8321;30.0359;
17.552;1.0059;0.0010;0.2808;-4.1069;0.9695;-0.8550;30.0359;
17.573;1.0142;-0.0107;0.2769;-4.0840;1.0687;-0.8244;29.9418;
17.594;1.0100;-0.0078;0.2788;-4.1221;1.1221;-0.9618;30.0359;
17.615;1.0129;-0.0085;0.2769;-4.1603;0.9924;-0.7939;29.9418;
17.636;1.0083;0.0002;0.2783;-4.1374;1.0534;-0.9084;30.0359;
17.657;1.0117;-0.0027;0.2733;-4.0000;1.0916;-0.7939;30.0359;
17.678;1.0103;-0.0034;0.2730;-4.1527;1.1374;-0.9618;29.9418;
17.699;1.0076;-0.0012;0.2680;-4.2748;1.0229;-0.8244;30.0359;
17.720;1.0103;-0.0059;0.2780;-4.1908;0.8931;-0.8168;29.8476;
17.741;1.0120;-0.0066;0.2849;-4.3664;1.0076;-0.7939;29.9418;
17.762;1.0146;-0.0076;0.2763;-4.0076;0.9313;-1.1069;30.0359;
17.783;1.0132;-0.0027;0.2758;-4.1603;0.8855;-0.7634;29.9418;
17.804;1.0107;-0.0081;0.2794;-4.0000;0.8626;-0.9084;30.0359;
17.825;1.0093;-0.0068;0.2813;-4.0153;0.7405;-0.6641;30.0359;
17.847;1.0098;-0.0063;0.2797;-4.0305;1.0687;-0.7099;30.0359;
17.868;1.0098;-0.0088;0.2877;-4.2214;0.9237;-1.0840;30.0359;
17.889;1.0129;0.0007;0.2766;-4.1756;1.1374;-0.8244;30.0359;
17.911;1.0142;-0.0042;0.2772;-4.0458;0.9618;-0.8626;30.0359;
17.931;1.0095;-0.0007;0.2799;-4.1221;0.9237;-0.8168;30.0359;
17.952;1.0149;-0.0059;0.2780;-4.2748;1.0687;-0.8473;30.0359;
17.973;1.0088;-0.0051;0.2749;-4.1450;0.9542;-0.7786;30.0359;
17.994;1.0117;-0.0020;0.2760;-4.2366;1.2290;-0.9771;30.0359;
18.015;1.0076;-0.0051;0.2694;-4.2290;1.0763;-0.9160;30.0359;
18.036;1.0090;-0.0076;0.2688;-4.3053;0.8321;-0.8779;30.0359;
18.057;1.0120;-0.0081;0.2758;-4.1374;1.0763;-0.8931;30.0359;
18.078;1.0066;-0.0085;0.2755;-4.1832;0.8931;-0.9389;30.0359;
18.099;1.0081;-0.0039;0.2755;-4.1908;1.0305;-0.8702;30.0359;
18.120;1.0166;-0.0076;0.2802;-4.1679;0.9389;-0.8855;29.9418;
18.141;1.0059;-0.0034;0.2738;-4.1908;0.7939;-0.8855;29.9418;
18.163;1.0093;-0.0024;0.2719;-4.1298;1.0840;-0.8855;30.1300;
18.184;1.0129;-0.0012;0.2608;-4.3206;1.0382;-0.9695;30.0359;
18.204;1.0073;-0.0073;0.2727;-4.1908;0.9542;-0.8015;30.0359;
18.225;1.0122;-0.0044;0.2846;-4.2214;0.9466;-0.7328;30.0359;
18.246;1.0122;-0.0007;0.2713;-4.0840;1.0382;-0.9084;29.9418;
18.267;1.0112;-0.0083;0.2747;-4.2824;1.0229;-0.8473;30.0359;
18.288;1.0107;-0.0056;0.2738;-4.2595;1.0153;-0.8397;30.0359;
18.309;1.0134;-0.0029;0.2641;-4.2595;0.9542;-0.7176;29.8476;
18.330;1.0103;-0.0032;0.2724;-4.1221;0.9618;-0.9084;29.9418;
18.351;1.0085;-0.0032;0.2655;-4.0763;0.9313;-0.9695;30.1300;
18.372;1.0078;-0.0046;0.2846;-4.0076;1.0992;-0.9542;30.0359;
18.393;1.0115;-0.0073;0.2830;-3.9618;0.9542;-0.8473;29.9418;
18.414;1.0088;-0.0046;0.2772;-4.1450;1.0611;-0.8855;30.0359;
18.435;1.0088;-0.0051;0.2808;-4.2137;1.0687;-0.9847;30.0359;
18.456;1.0120;-0.0098;0.2819;-4.3588;1.0916;-0.9313;29.9418;
18.477;1.0088;0.0005;0.2783;-4.2061;0.9389;-0.7023;30.2241;
18.499;1.0159;-0.0088;0.2755;-4.1832;1.0305;-0.7863;29.9418;
18.520;1.0171;-0.0027;0.2758;-4.2901;0.7939;-1.0992;29.9418;
18.541;1.0078;-0.0056;0.2755;-4.2290;0.8626;-0.7252;29.9418;
18.562;1.0081;-0.0015;0.2777;-4.0916;1.1450;-0.8321;30.0359;
18.583;1.0139;-0.0056;0.2841;-4.1298;1.0992;-0.7557;29.9418;
18.604;1.0129;-0.0039;0.2766;-4.0687;1.1679;-0.9008;29.9418;
18.626;1.0120;-0.0044;0.2763;-4.0153;0.9237;-0.8244;30.0359;
18.646;1.0122;-0.0020;0.2727;-4.0916;1.0687;-0.8015;29.9418;
18.667;1.0107;-0.0071;0.2713;-4.3435;1.0992;-0.8702;29.9418;
18.688;1.0090;-0.0029;0.2691;-4.0534;0.9160;-1.0382;30.0359;
18.709;1.0063;-0.0029;0.2805;-4.3130;1.0916;-0.7557;29.9418;
18.730;1.0112;-0.0039;0.2719;-4.2672;0.8855;-0.7481;29.9418;
18.751;1.0068;-0.0032;0.2705;-4.2443;0.8321;-0.9008;29.9418;
18.773;1.0122;-0.0071;0.2760;-4.3893;0.9466;-0.9237;30.0359;
18.794;1.0139;-0.0049;0.2691;-4.3740;0.8931;-0.8931;30.0359;
18.815;1.0071;-0.0010;0.2805;-4.1374;1.0229;-0.9847;30.0359;
18.836;1.0110;-0.0015;0.2835;-4.3053;0.7863;-1.1374;30.0359;
18.857;1.0117;-0.0049;0.2719;-4.3282;1.1069;-1.1298;30.0359;
18.878;1.0029;-0.0034;0.2744;-4.0992;1.0382;-0.8779;29.9418;
18.899;1.0154;-0.0049;0.2752;-4.0000;0.9466;-0.7252;29.9418;
18.920;1.0137;-0.0066;0.2708;-4.1527;1.0534;-0.8168;29.9418;
18.941;1.0154;-0.0012;0.2683;-4.1756;1.0000;-0.7176;30.0359;
18.962;1.0183;-0.0098;0.2691;-4.2214;0.9771;-0.8702;30.0359;
18.983;1.0054;-0.0068;0.2833;-4.0534;0.8702;-0.7328;29.9418;
19.004;1.0142;-0.0127;0.2744;-4.2366;0.8321;-0.8626;30.0359;
19.025;1.0090;-0.0049;0.2877;-4.1756;1.0687;-0.8015;29.9418;
19.046;1.0120;0.0015;0.2791;-4.2672;1.0229;-0.9389;29.9418;
19.067;1.0112;-0.0081;0.2797;-4.0305;1.1679;-0.9237;30.0359;
19.088;1.0061;-0.0078;0.2766;-4.2366;1.1908;-0.7786;29.9418;
19.109;1.0071;-0.0049;0.2705;-4.1603;0.9313;-0.8626;29.9418;
19.130;1.0142;0.0007;0.2752;-4.0458;0.8550;-0.7405;29.9418;
19.151;1.0071;-0.0020;0.2763;-4.1527;0.9771;-0.8397;30.0359;
19.172;1.0088;-0.0034;0.2702;-4.2595;0.9771;-1.0992;30.0359;
19.193;1.0066;-0.0071;0.2697;-3.9237;1.0534;-0.7939;30.0359;
19.214;1.0061;-0.0059;0.2652;-4.0992;0.7863;-0.8550;29.9418;
19.235;1.0051;-0.0044;0.2791;-4.0153;0.9924;-0.9466;30.0359;
19.256;1.0107;-0.0081;0.2680;-4.2290;0.9389;-0.9237;30.0359;
19.277;1.0154;-0.0051;0.2716;-4.1985;0.8702;-0.8702;30.0359;
19.298;1.0088;-0.0083;0.2713;-4.1069;1.0153;-0.9466;30.0359;
19.319;1.0110;-0.0112;0.2816;-4.1756;0.9160;-0.9618;30.0359;
19.341;1.0056;0.0002;0.2727;-4.3969;1.0229;-0.8015;30.0359;
19.362;1.0054;-0.0076;0.2785;-4.2290;1.0382;-0.8779;30.0359;
19.383;1.0076;-0.0076;0.2741;-4.3969;1.0153;-0.8550;30.0359;
19.404;1.0105;-0.0049;0.2702;-4.1374;0.9084;-0.9847;30.0359;
19.425;1.0095;-0.0088;0.2819;-4.0153;1.1374;-0.8473;29.9418;
19.446;1.0068;-0.0076;0.2705;-4.0382;1.1832;-0.8855;29.9418;
19.467;1.0156;-0.0054;0.2819;-4.3053;0.9924;-0.9542;30.0359;
19.488;1.0076;-0.0024;0.2816;-4.0153;0.9084;-0.9695;29.9418;
19.509;1.0120;-0.0054;0.2783;-4.2290;0.9542;-0.8397;29.9418;
19.530;1.0098;0.0000;0.2777;-4.1756;0.8702;-1.0000;30.0359;
19.551;1.0095;-0.0049;0.2763;-3.9542;0.9924;-0.9237;29.9418;
19.572;1.0095;-0.0088;0.2674;-4.1145;1.1374;-0.9160;30.0359;
19.593;1.0132;-0.0054;0.2705;-4.3588;1.1145;-0.8779;29.9418;
19.614;1.0110;0.0042;0.2794;-4.3282;0.9847;-0.9695;29.9418;
19.635;1.0129;-0.0044;0.2772;-4.0458;1.0000;-0.8931;30.0359;
19.656;1.0122;-0.0051;0.2747;-3.8855;1.2061;-0.7939;29.8476;
19.677;1.0132;-0.0049;0.2802;-4.0611;1.0229;-0.8244;30.0359;
19.698;1.0139;-0.0078;0.2821;-3.9771;1.0382;-0.9542;30.1300;
19.719;1.0115;0.0020;0.2785;-3.9924;0.9771;-0.8779;29.9418;
19.740;1.0110;-0.0081;0.2766;-4.1298;1.0382;-0.8473;30.0359;
19.761;1.0083;-0.0066;0.2680;-4.3588;0.8779;-0.9542;29.9418;
19.782;1.0107;-0.0078;0.2722;-4.2901;1.0458;-1.0611;30.0359;
19.803;1.0110;-0.0068;0.2794;-4.2137;0.9008;-0.7710;30.0359;
19.824;1.0142;-0.0073;0.2735;-4.2443;0.9084;-0.9695;30.0359;
19.845;1.0122;-0.0007;0.2691;-4.0382;0.9695;-0.8702;29.9418;
19.866;1.0164;-0.0017;0.2849;-4.1679;0.9237;-1.0076;30.0359;
19.887;1.0103;-0.0061;0.2694;-3.9542;1.0458;-1.0000;29.9418;
19.908;1.0117;-0.0107;0.2763;-3.9771;1.0153;-0.7863;29.9418;
19.929;1.0122;0.0005;0.2741;-4.2214;1.0076;-0.9542;29.9418;
19.950;1.0103;-0.0032;0.2711;-4.1527;1.0229;-1.0076;30.0359;
19.971;1.0122;-0.0012;0.2669;-3.8931;1.1527;-0.8550;29.9418;
19.993;1.0085;-0.0034;0.2813;-4.1832;1.0076;-0.7328;30.0359;
20.015;1.0098;-0.0012;0.2741;-3.9313;0.9237;-0.8855;29.9418;
20.036;1.0093;-0.0103;0.2780;-3.9160;1.0382;-0.8244;30.0359;
20.057;1.0090;-0.0088;0.2824;-4.1374;1.1221;-0.9924;30.0359;
20.078;1.0068;-0.0037;0.2866;-3.9618;1.0076;-0.8397;30.0359;
20.099;1.0107;-0.0083;0.2752;-4.0382;1.1908;-1.0076;30.0359;
20.120;1.0122;-0.0027;0.2661;-4.0534;1.1832;-0.8321;29.9418;
20.141;1.0110;-0.0046;0.2780;-4.3664;0.9160;-1.0458;30.1300;
20.162;1.0110;-0.0066;0.2808;-4.2977;0.9313;-1.0076;29.9418;
20.183;1.0110;-0.0044;0.2777;-4.2519;0.9008;-0.9466;30.0359;
20.204;1.0088;-0.0017;0.2772;-4.3282;0.9160;-1.0611;29.9418;
20.225;1.0063;-0.0059;0.2808;-4.3282;0.9618;-0.8473;29.9418;
20.246;1.0137;-0.0054;0.2733;-4.1069;0.8626;-0.9771;30.0359;
20.267;1.0039;-0.0046;0.2855;-4.0611;1.0305;-1.0076;30.0359;
20.288;1.0068;-0.0061;0.2749;-4.2824;0.9771;-0.8244;29.9418;
20.309;1.0090;-0.0044;0.2711;-4.1908;1.1908;-0.8397;29.9418;
20.330;1.0090;-0.0061;0.2791;-4.0458;0.8397;-0.8855;29.9418;
20.351;1.0093;-0.0059;0.2849;-4.2061;0.8321;-0.8626;29.9418;
20.372;1.0098;-0.0002;0.2797;-4.3282;1.0076;-0.8931;30.0359;
20.393;1.0100;-0.0107;0.2802;-4.2366;0.9466;-0.9618;29.9418;
20.414;1.0132;-0.0049;0.2702;-4.1832;1.0305;-1.0076;29.9418;
20.435;1.0120;-0.0132;0.2774;-4.1298;0.9771;-1.1069;30.0359;
20.456;1.0110;-0.0046;0.2769;-4.3206;0.8168;-0.9542;29.9418;
20.477;1.0088;-0.0056;0.2705;-4.1527;1.0076;-0.9389;29.9418;
20.498;1.0142;-0.0027;0.2711;-4.1450;1.0305;-1.0076;29.9418;
20.519;1.0093;-0.0066;0.2727;-4.1069;0.9313;-0.9084;30.0359;
20.540;1.0120;-0.0015;0.2749;-4.2366;0.9160;-0.8626;30.0359;
20.561;1.0095;-0.0081;0.2774;-3.9389;1.2137;-0.8015;29.9418;
20.582;1.0095;-0.0039;0.2797;-3.9084;0.9771;-0.8626;30.0359;
20.603;1.0085;-0.0117;0.2783;-4.0763;1.0687;-0.8855;30.0359;
20.624;1.0039;-0.0098;0.2777;-4.1374;1.1145;-0.9618;30.0359;
20.645;1.0129;-0.0042;0.2824;-4.2214;0.8702;-0.7863;29.9418;
20.667;1.0107;-0.0037;0.2749;-4.1832;0.8550;-0.8092;30.0359;
20.688;1.0103;-0.0059;0.2749;-4.4122;0.9313;-1.0229;30.0359;
20.709;1.0137;-0.0085;0.2741;-4.2519;0.9542;-1.1450;30.0359;
20.730;1.0115;-0.0059;0.2733;-4.4504;1.0153;-0.9618;29.9418;
20.751;1.0068;-0.0044;0.2785;-4.3130;1.1221;-0.9084;30.0359;
20.772;1.0115;-0.0007;0.2824;-4.1069;1.1069;-0.9389;30.0359;
20.793;1.0107;-0.0032;0.2763;-4.2290;1.0000;-0.8702;29.9418;
20.814;1.0078;-0.0029;0.2794;-4.0916;1.0076;-0.6947;29.8476;
20.835;1.0110;-0.0054;0.2788;-4.2748;1.0229;-0.8092;29.9418;
20.856;1.0071;-0.0024;0.2763;-4.0076;0.9237;-0.8015;30.0359;
20.877;1.0125;-0.0049;0.2777;-4.0992;0.9313;-0.7557;29.9418;
20.898;1.0117;0.0029;0.2747;-4.4198;1.0382;-0.7099;29.9418;
20.919;1.0129;-0.0037;0.2846;-4.2214;1.0992;-0.8779;29.9418;
20.940;1.0103;-0.0054;0.2769;-4.3893;1.1603;-0.9160;30.0359;
20.961;1.0078;-0.0044;0.2727;-4.0229;1.1603;-0.8321;29.9418;
20.982;1.0139;0.0010;0.2846;-4.1527;1.0076;-0.9008;29.9418;
21.003;1.0115;-0.0049;0.2797;-4.2672;0.8779;-0.8931;30.0359;
21.024;1.0093;-0.0068;0.2711;-4.1908;1.0534;-0.9618;30.0359;
21.045;1.0120;-0.0037;0.2769;-4.1756;1.0458;-0.8244;30.1300;
21.066;1.0120;-0.0078;0.2733;-4.0382;0.9695;-0.8168;29.9418;
21.087;1.0088;-0.0071;0.2688;-4.1679;1.1603;-0.8931;29.9418;
21.108;1.0098;-0.0088;0.2769;-4.1756;0.9542;-0.8779;29.9418;
21.129;1.0042;-0.0076;0.2805;-4.1985;0.9924;-0.8931;30.0359;
21.150;1.0120;-0.0083;0.2663;-4.2366;1.0382;-0.9237;30.0359;
21.171;1.0088;-0.0010;0.2655;-4.1832;1.1374;-0.8626;29.9418;
21.192;1.0110;-0.0012;0.2894;-4.2366;1.0382;-0.6947;29.9418;
21.213;1.0076;0.0000;0.2741;-4.1985;1.0229;-0.9389;29.9418;
21.234;1.0132;-0.0081;0.2688;-4.4504;0.9924;-0.7863;30.0359;
21.255;1.0122;-0.0083;0.2766;-4.1527;1.0382;-0.9466;29.9418;
21.276;1.0129;-0.0093;0.2702;-4.0458;0.9695;-0.8321;30.0359;
21.297;1.0127;0.0017;0.2821;-4.2824;0.9084;-0.9084;30.0359;
21.319;1.0103;-0.0066;0.2755;-4.1450;0.8473;-1.0382;29.9418;
21.341;1.0103;-0.0061;0.2808;-4.2443;0.9237;-0.8473;29.9418;
21.363;1.0042;-0.0027;0.2772;-4.2137;1.0458;-0.7786;30.0359;
21.383;1.0071;-0.0049;0.2616;-4.0611;0.9084;-0.7786;30.0359;
21.404;1.0063;-0.0015;0.2777;-4.2748;0.8702;-0.8321;30.0359;
21.425;1.0100;-0.0002;0.2677;-4.2901;1.1069;-0.8397;30.0359;
21.446;1.0137;-0.0029;0.2772;-4.2061;1.0687;-0.8168;29.9418;
21.467;1.0066;-0.0090;0.2797;-4.0916;1.1298;-0.8473;29.9418;
21.488;1.0159;-0.0098;0.2747;-4.1069;1.1679;-0.9008;30.0359;
21.509;1.0117;-0.0027;0.2780;-4.0305;1.1679;-0.8550;30.0359;
21.530;1.0132;-0.0042;0.2747;-4.1985;0.9389;-0.8397;29.9418;
21.551;1.0044;-0.0046;0.2697;-4.1679;0.8626;-0.8321;30.0359;
21.572;1.0117;-0.0083;0.2697;-4.2290;1.0382;-0.8702;30.0359;
21.593;1.0085;-0.0020;0.2824;-4.1450;0.8931;-0.8092;30.0359;
21.614;1.0056;-0.0042;0.2711;-4.1679;0.8855;-0.8931;29.9418;
21.635;1.0059;-0.0032;0.2816;-4.1756;0.9695;-0.7786;30.0359;
21.656;1.0098;-0.0044;0.2769;-4.2519;0.9618;-0.8550;29.9418;
21.677;1.0093;-0.0002;0.2636;-4.1069;1.1374;-0.8397;29.9418;
21.698;1.0110;-0.0103;0.2772;-4.2443;1.0916;-0.9542;29.9418;
21.719;1.0063;-0.0063;0.2841;-4.0000;0.9618;-0.9618;30.0359;
21.740;1.0081;-0.0044;0.2821;-4.3511;1.0153;-0.7099;30.0359;
21.761;1.0110;-0.0024;0.2730;-4.0534;1.0687;-0.9160;29.8476;
21.782;1.0081;-0.0054;0.2763;-4.3053;1.1145;-0.7099;30.0359;
21.803;1.0105;-0.0054;0.2799;-4.3817;0.9389;-0.8473;30.0359;
21.837;1.0134;-0.0054;0.2777;-4.2595;1.1221;-0.9466;29.9418;
21.845;1.0134;-0.0054;0.2777;-4.0687;0.9771;-0.8092;29.9418;
21.866;1.0088;-0.0044;0.2805;-4.1756;1.0305;-1.0153;30.0359;
21.887;1.0127;-0.0142;0.2816;-4.1374;1.0382;-0.8244;30.1300;
21.908;1.0171;-0.0063;0.2785;-4.2595;1.0840;-0.8397;29.9418;
21.929;1.0056;-0.0103;0.2758;-4.1221;1.0229;-0.7634;29.9418;
21.950;1.0088;-0.0085;0.2716;-4.2748;1.1145;-0.8626;30.0359;
21.971;1.0110;-0.0054;0.2755;-4.1679;0.8244;-0.7863;30.0359;
21.993;1.0146;0.0002;0.2794;-4.0000;1.1145;-0.8244;30.0359;
22.014;1.0090;-0.0034;0.2758;-4.1374;1.1221;-0.8092;30.0359;
22.035;1.0103;-0.0098;0.2802;-4.0000;0.8702;-0.9008;29.9418;
22.056;1.0134;-0.0032;0.2694;-4.0840;0.8473;-0.7252;30.0359;
22.077;1.0122;-0.0007;0.2749;-4.2824;1.1374;-0.9008;30.0359;
22.098;1.0146;-0.0007;0.2846;-4.0687;1.1374;-0.9389;30.0359;
22.119;1.0076;-0.0085;0.2783;-4.0992;0.9008;-0.8321;30.0359;
22.140;1.0137;-0.0059;0.2821;-4.1145;0.9542;-0.7863;30.0359;
22.161;1.0142;-0.0049;0.2663;-4.0992;1.0229;-0.8855;30.0359;
22.182;1.0127;-0.0073;0.2783;-4.2137;1.1832;-0.8626;29.9418;
22.203;1.0105;-0.0020;0.2752;-4.0382;0.9771;-0.6947;29.9418;
22.224;1.0105;-0.0068;0.2785;-4.0534;1.1603;-0.9466;29.9418;
22.245;1.0042;-0.0056;0.2760;-4.1756;0.9313;-0.8626;29.9418;
22.267;1.0071;-0.0034;0.2716;-4.4427;1.0611;-0.9618;29.9418;
22.288;1.0103;-0.0046;0.2777;-4.2061;1.0534;-1.0229;29.9418;
22.309;1.0112;-0.0120;0.2666;-4.0534;0.9542;-0.8626;29.9418;
22.330;1.0159;-0.0098;0.2608;-4.2595;0.9924;-1.1145;30.0359;
22.351;1.0083;-0.0095;0.2744;-4.1985;1.0000;-0.6412;29.9418;
22.372;1.0142;-0.0076;0.2719;-4.2290;1.1145;-0.7863;29.9418;
22.393;1.0115;-0.0056;0.2769;-4.3664;1.0229;-0.8321;29.9418;
22.414;1.0132;-0.0032;0.2794;-4.1069;0.9618;-0.8931;29.9418;
22.435;1.0105;-0.0034;0.2638;-4.2519;1.1527;-0.8015;30.0359;
22.457;1.0112;-0.0063;0.2752;-4.3282;1.0992;-0.7328;29.9418;
22.478;1.0056;-0.0032;0.2755;-4.0763;0.9466;-1.1069;30.0359;
22.499;1.0129;-0.0015;0.2663;-4.0534;1.1069;-0.8855;29.9418;
22.520;1.0076;-0.0103;0.2783;-4.0076;0.9237;-0.8779;30.0359;
22.541;1.0044;-0.0046;0.2752;-4.2137;0.8321;-0.8702;30.0359;
22.562;1.0115;-0.0066;0.2780;-4.1145;0.9618;-0.8550;30.0359;
22.583;1.0110;-0.0054;0.2766;-4.1679;1.0458;-0.7634;29.9418;
22.604;1.0107;-0.0029;0.2758;-4.0076;0.8473;-0.8550;29.9418;
22.625;1.0063;-0.0044;0.2794;-4.1908;1.0153;-0.9542;30.0359;
22.646;1.0059;-0.0051;0.2749;-4.3359;1.0763;-0.7939;29.9418;
22.667;1.0071;-0.0090;0.2716;-4.2595;1.1298;-0.8321;30.0359;
22.688;1.0098;-0.0051;0.2766;-4.1527;1.0458;-0.7023;29.9418;
22.709;1.0127;-0.0029;0.2824;-4.2290;0.9924;-0.8244;30.0359;
22.730;1.0110;-0.0107;0.2747;-4.0916;1.1450;-0.8321;30.0359;
22.751;1.0095;-0.0076;0.2711;-4.0382;0.8168;-0.6947;30.0359;
22.772;1.0088;-0.0088;0.2735;-4.2137;1.0153;-0.7939;29.9418;
22.793;1.0081;-0.0068;0.2663;-4.0229;1.1221;-0.6947;30.0359;
22.815;1.0129;-0.0039;0.2724;-4.1069;1.0382;-0.8015;29.9418;
22.835;1.0142;-0.0017;0.2821;-4.4122;0.9313;-0.8779;29.9418;
22.856;1.0083;-0.0022;0.2816;-4.3359;1.0153;-0.9771;30.0359;
22.877;1.0154;-0.0083;0.2686;-4.2824;1.1069;-0.6718;30.0359;
22.898;1.0110;-0.0078;0.2727;-4.2366;1.0000;-0.9466;29.9418;
22.919;1.0115;-0.0068;0.2813;-4.0840;0.9847;-0.8931;29.8476;
22.940;1.0085;-0.0010;0.2835;-4.0611;0.9695;-0.8244;30.0359;
22.961;1.0093;-0.0051;0.2672;-4.2214;0.9389;-0.8168;29.9418;
22.982;1.0042;-0.0063;0.2755;-4.0458;1.1069;-0.8473;30.0359;
23.003;1.0076;0.0007;0.2744;-3.9313;1.1527;-1.0611;29.9418;
23.024;1.0117;-0.0051;0.2747;-4.1374;1.0153;-0.8168;30.0359;
23.045;1.0129;-0.0063;0.2711;-3.9313;1.0763;-0.9695;29.9418;
23.066;1.0098;0.0012;0.2783;-4.0840;1.0305;-0.9847;29.9418;
23.087;1.0122;0.0007;0.2741;-3.9389;0.8702;-0.9695;29.9418;
23.108;1.0088;-0.0032;0.2733;-4.2672;0.8855;-0.9237;29.9418;
23.129;1.0139;-0.0071;0.2769;-4.1756;0.9847;-0.8168;30.0359;
23.150;1.0071;-0.0044;0.2672;-4.1679;1.0534;-0.9466;30.0359;
23.171;1.0093;-0.0017;0.2772;-4.1832;0.9466;-1.1221;29.9418;
23.192;1.0076;-0.0034;0.2808;-4.1679;1.0992;-0.9160;30.0359;
23.213;1.0100;-0.0068;0.2821;-4.1221;1.1221;-0.7710;30.0359;
23.234;1.0095;-0.0098;0.2797;-4.2672;1.0687;-1.0458;29.8476;
23.255;1.0093;0.0010;0.2794;-4.0763;1.0076;-0.7023;30.0359;
23.276;1.0161;-0.0063;0.2735;-4.2595;1.1374;-0.8092;30.0359;
23.297;1.0081;-0.0046;0.2810;-4.0840;1.0534;-0.9695;30.0359;
23.318;1.0117;-0.0098;0.2730;-4.0305;0.9313;-0.8397;30.0359;
23.339;1.0161;-0.0024;0.2774;-4.2290;1.1221;-0.8244;29.9418;
23.360;1.0083;-0.0017;0.2788;-4.3053;1.0076;-0.8779;30.0359;
23.381;1.0125;-0.0044;0.2846;-4.1527;0.8626;-0.8092;30.0359;
23.402;1.0176;-0.0022;0.2769;-4.2672;1.0992;-0.8092;29.9418;
23.423;1.0142;-0.0020;0.2846;-4.2595;0.9847;-0.8015;30.0359;
23.444;1.0107;-0.0093;0.2735;-4.2519;0.8931;-1.0458;30.0359;
23.465;1.0083;-0.0059;0.2819;-4.1832;1.0458;-0.8244;30.0359;
23.487;1.0115;-0.0024;0.2735;-4.3206;0.8626;-0.9771;29.9418;
23.509;1.0132;-0.0042;0.2735;-4.1985;1.0992;-0.7557;29.9418;
23.530;1.0063;-0.0044;0.2744;-4.0763;0.9771;-0.8092;30.0359;
23.551;1.0115;-0.0063;0.2810;-4.3053;1.0305;-0.9542;30.0359;
23.572;1.0061;-0.0049;0.2708;-4.4046;1.1374;-0.8702;29.9418;
23.593;1.0115;0.0010;0.2760;-3.9771;1.0534;-0.8779;30.0359;
23.614;1.0178;-0.0020;0.2802;-4.1985;0.9618;-1.0000;30.0359;
23.635;1.0115;-0.0090;0.2808;-4.0611;1.1527;-0.9008;29.9418;
23.656;1.0056;-0.0020;0.2663;-4.0992;0.9237;-0.7099;29.9418;
23.677;1.0076;-0.0076;0.2791;-4.1221;0.9466;-1.0153;29.9418;
23.698;1.0090;-0.0049;0.2733;-4.1298;0.9160;-0.8168;30.0359;
23.719;1.0115;-0.0044;0.2744;-4.2290;0.9237;-0.9847;29.9418;
23.740;1.0059;-0.0093;0.2833;-4.2443;1.0076;-0.8397;30.0359;
23.761;1.0110;-0.0081;0.2588;-4.0305;1.0534;-0.8321;29.9418;
23.783;1.0137;-0.0015;0.2819;-4.1756;1.0611;-0.7176;29.9418;
23.804;1.0063;-0.0054;0.2780;-4.2595;1.0763;-0.8168;29.9418;
23.825;1.0161;-0.0083;0.2860;-4.1756;0.9389;-0.6947;29.9418;
23.846;1.0127;-0.0044;0.2797;-4.2290;1.1069;-0.8244;29.9418;
23.867;1.0066;0.0012;0.2791;-4.2977;0.9008;-0.8550;30.0359;
23.888;1.0085;-0.0022;0.2810;-4.1679;1.0382;-0.7252;29.9418;
23.909;1.0066;-0.0020;0.2788;-4.1374;0.8550;-0.7634;29.9418;
23.930;1.0146;-0.0061;0.2838;-4.0229;0.9771;-0.9008;29.9418;
23.951;1.0083;-0.0081;0.2735;-4.0458;0.9466;-0.9771;29.9418;
23.972;1.0071;-0.0081;0.2683;-4.2672;1.0076;-0.9313;29.9418;
23.993;1.0071;-0.0122;0.2755;-4.0305;1.1145;-0.9084;29.9418;
24.014;1.0120;-0.0032;0.2760;-4.1832;0.9618;-0.9542;29.9418;
24.035;1.0098;-0.0017;0.2727;-4.2061;1.0076;-0.6412;29.9418;
24.056;1.0012;-0.0005;0.2852;-4.2366;1.0687;-0.8092;29.9418;
24.077;1.0103;-0.0020;0.2724;-4.1832;1.0840;-1.0229;29.9418;
24.098;1.0122;-0.0022;0.2749;-4.1679;1.0534;-0.9618;29.9418;
24.119;1.0093;-0.0049;0.2708;-4.0305;0.9618;-0.8397;29.9418;
24.140;1.0090;-0.0071;0.2846;-4.2137;1.0840;-0.8168;29.9418;
24.161;1.0161;-0.0085;0.2719;-4.0382;0.8779;-0.8015;30.0359;
24.182;1.0073;-0.0034;0.2788;-4.0000;1.1527;-0.8321;29.9418;
24.203;1.0093;-0.0012;0.2697;-4.1069;0.9389;-0.7634;30.0359;
24.224;1.0095;-0.0034;0.2694;-4.0458;0.8931;-0.9771;30.0359;
24.245;1.0142;-0.0042;0.2788;-4.0763;0.9008;-0.9160;29.9418;
24.266;1.0154;-0.0059;0.2724;-4.0992;0.9160;-0.9313;29.9418;
24.287;1.0127;-0.0063;0.2766;-4.0840;1.2519;-0.7863;29.9418;
24.308;1.0076;-0.0034;0.2755;-4.2672;1.0076;-0.9389;30.0359;
24.329;1.0134;-0.0049;0.2874;-4.1985;1.0229;-0.8855;30.0359;
24.350;1.0137;-0.0044;0.2716;-4.0687;1.2137;-0.8626;29.9418;
24.371;1.0085;-0.0032;0.2819;-4.0305;0.8397;-0.7405;29.9418;
24.392;1.0149;-0.0042;0.2860;-4.1221;1.0687;-0.8473;29.9418;
24.413;1.0112;-0.0022;0.2760;-4.1069;0.9542;-0.8931;30.0359;
24.434;1.0107;-0.0068;0.2719;-4.2366;0.9084;-1.0076;30.0359;
24.455;1.0159;-0.0061;0.2638;-4.1145;1.0076;-0.9618;29.9418;
24.476;1.0095;-0.0007;0.2744;-4.1450;1.0153;-0.8168;29.9418;
24.497;1.0134;-0.0115;0.2769;-4.4122;1.0458;-0.9695;30.0359;
24.518;1.0110;-0.0007;0.2777;-4.1603;0.8473;-0.9618;29.9418;
24.539;1.0068;-0.0039;0.2724;-4.2672;0.9924;-0.9237;30.0359;
24.560;1.0078;-0.0012;0.2691;-4.0229;0.8473;-0.7634;29.9418;
24.581;1.0151;-0.0046;0.2780;-4.2214;0.8931;-0.7863;30.1300;
24.602;1.0125;-0.0051;0.2838;-4.1145;0.9618;-1.0611;29.9418;
24.623;1.0076;-0.0051;0.2755;-4.1756;0.9771;-0.9008;29.9418;
24.644;1.0154;-0.0042;0.2863;-4.0000;1.1145;-0.8092;30.0359;
24.665;1.0125;0.0032;0.2774;-4.0916;0.9313;-0.8168;29.9418;
24.686;1.0083;-0.0054;0.2772;-4.1603;0.9466;-1.0534;29.9418;
24.707;1.0129;-0.0054;0.2716;-4.2672;1.1221;-0.9008;29.9418;
24.728;1.0088;-0.0090;0.2763;-4.2137;1.1985;-0.7405;30.0359;
24.749;1.0137;-0.0042;0.2846;-4.2519;1.0840;-0.8244;29.9418;
24.770;1.0046;-0.0059;0.2766;-4.2901;1.0382;-0.8473;29.9418;
24.791;1.0090;-0.0054;0.2741;-4.2214;1.0076;-0.8244;29.9418;
24.813;1.0125;-0.0046;0.2774;-4.2443;0.9771;-0.8626;29.9418;
24.835;1.0100;-0.0061;0.2649;-4.1069;0.9008;-0.8702;30.0359;
24.856;1.0076;-0.0063;0.2722;-4.2519;0.9695;-0.9160;29.9418;
24.877;1.0137;-0.0059;0.2730;-3.9771;0.9847;-0.9618;29.9418;
24.898;1.0134;-0.0112;0.2658;-4.1832;0.9542;-0.8779;29.9418;
24.919;1.0076;-0.0049;0.2733;-4.3282;0.8931;-0.8168;30.0359;
24.940;1.0093;0.0002;0.2780;-4.1298;0.9542;-0.9313;29.9418;
24.961;1.0088;-0.0029;0.2841;-4.1985;0.9847;-0.6794;30.0359;
24.982;1.0073;-0.0088;0.2766;-3.9924;1.0611;-0.8473;29.9418;
25.003;1.0154;-0.0103;0.2838;-4.0992;0.9542;-0.8244;29.9418;
25.024;1.0115;-0.0076;0.2747;-4.0153;0.8473;-0.9542;30.0359;
25.045;1.0134;0.0020;0.2735;-4.2214;1.0763;-0.9466;30.0359;
25.066;1.0149;-0.0002;0.2763;-4.0763;1.0305;-0.8473;30.0359;
25.087;1.0090;-0.0020;0.2697;-4.1374;1.0076;-1.0611;30.0359;
25.109;1.0093;-0.0095;0.2727;-4.2519;1.0000;-0.8473;29.9418;
25.130;1.0112;-0.0046;0.2747;-4.2824;0.9847;-0.9542;30.0359;
25.151;1.0146;-0.0027;0.2774;-4.1603;1.0458;-0.8168;30.0359;
25.172;1.0103;-0.0046;0.2730;-4.2901;1.1374;-0.7939;30.0359;
25.193;1.0071;-0.0017;0.2763;-4.3511;1.0458;-0.7786;30.0359;
25.214;1.0107;-0.0037;0.2763;-4.3511;1.0687;-0.8626;29.8476;
25.235;1.0110;-0.0027;0.2724;-4.3817;0.9313;-1.1298;30.0359;
25.256;1.0144;-0.0024;0.2788;-3.8931;1.2748;-0.9160;29.9418;
25.277;1.0095;-0.0083;0.2719;-4.0000;1.0611;-0.8473;30.0359;
25.298;1.0107;-0.0034;0.2797;-4.1145;1.0840;-0.7328;30.0359;
25.319;1.0146;-0.0027;0.2741;-4.2443;0.9847;-0.8550;29.9418;
25.340;1.0076;-0.0039;0.2716;-4.2137;1.1145;-0.9618;30.0359;
25.361;1.0095;-0.0076;0.2733;-4.0458;1.0382;-0.6947;29.9418;
25.382;1.0044;-0.0032;0.2733;-4.0229;1.0305;-0.8779;29.9418;
25.403;1.0107;-0.0032;0.2688;-4.1069;0.9466;-0.8779;30.0359;
25.424;1.0115;-0.0071;0.2747;-4.1298;0.9237;-0.9771;29.9418;
25.445;1.0093;0.0005;0.2830;-4.1832;1.0534;-0.6794;29.9418;
25.466;1.0063;0.0005;0.2799;-4.3511;1.1756;-0.9160;29.9418;
25.487;1.0178;-0.0044;0.2713;-4.0458;1.1374;-0.8321;29.9418;
25.508;1.0122;-0.0066;0.2788;-4.2061;0.9160;-0.7481;30.0359;
25.529;1.0068;-0.0034;0.2763;-4.1145;0.8931;-0.9313;29.9418;
25.550;1.0129;-0.0073;0.2741;-4.3053;0.9542;-0.8855;30.0359;
25.571;1.0020;-0.0032;0.2735;-4.0992;1.0992;-0.8473;30.0359;
25.592;1.0132;-0.0039;0.2672;-4.1221;1.0153;-0.7863;30.0359;
25.613;1.0095;-0.0059;0.2769;-4.2214;1.0916;-0.8550;29.9418;
25.634;1.0146;-0.0037;0.2766;-4.3817;0.9771;-0.7863;29.9418;
25.655;1.0144;-0.0034;0.2783;-4.1374;0.9695;-0.7786;30.0359;
25.676;1.0105;-0.0024;0.2719;-4.2824;0.9771;-0.8779;29.9418;
25.697;1.0105;-0.0034;0.2846;-4.2977;0.8931;-1.0611;30.0359;
25.718;1.0137;-0.0027;0.2871;-4.3282;1.0916;-0.9008;30.0359;
25.739;1.0151;-0.0073;0.2838;-4.1069;1.2214;-0.7557;29.9418;
25.760;1.0066;-0.0002;0.2855;-4.0534;0.9924;-0.7939;29.9418;
25.781;1.0107;-0.0051;0.2749;-3.9466;0.9160;-0.9542;29.9418;
25.802;1.0117;-0.0095;0.2697;-4.0305;1.1145;-0.9542;30.0359;
25.823;1.0120;-0.0066;0.2833;-4.2901;1.1298;-1.0229;29.9418;
25.844;1.0083;-0.0034;0.2733;-4.2137;0.9084;-0.9542;30.0359;
25.865;1.0100;-0.0017;0.2716;-4.1374;1.0000;-1.0229;29.9418;
25.886;1.0122;-0.0034;0.2711;-4.2137;1.1069;-0.8473;29.9418;
25.907;1.0083;-0.0071;0.2672;-4.3206;0.9542;-1.0382;30.0359;
25.928;1.0117;-0.0037;0.2741;-4.1679;1.0382;-0.9695;30.0359;
25.949;1.0098;-0.0044;0.2788;-4.4427;0.9160;-0.7939;29.9418;
25.970;1.0176;-0.0063;0.2713;-4.2519;0.9847;-0.7710;30.0359;
25.991;1.0110;-0.0007;0.2838;-4.0534;1.2061;-1.0229;30.0359;
26.012;1.0063;-0.0081;0.2821;-4.1603;1.2519;-0.8931;30.0359;
26.033;1.0085;-0.0063;0.2769;-4.0916;1.0000;-0.8550;29.9418;
26.054;1.0090;0.0010;0.2824;-4.1756;1.0000;-0.8931;29.9418;
26.075;1.0078;-0.0059;0.2688;-4.0992;1.0076;-0.8473;29.8476;
26.096;1.0127;-0.0024;0.2788;-4.0992;1.1298;-0.9618;30.0359;
26.117;1.0161;-0.0042;0.2849;-4.1450;0.8092;-0.9313;30.0359;
26.139;1.0120;-0.0029;0.2744;-4.4809;1.1069;-0.7328;29.9418;
26.161;1.0098;-0.0034;0.2772;-4.2290;1.0000;-0.8855;29.9418;
26.182;1.0137;-0.0078;0.2777;-4.1298;1.0763;-0.7557;30.0359;
26.203;1.0061;-0.0039;0.2791;-4.3053;1.0382;-0.7023;30.0359;
26.224;1.0146;-0.0051;0.2777;-4.2519;1.1450;-0.8931;29.9418;
26.245;1.0076;0.0005;0.2760;-4.3206;0.9466;-0.9466;30.0359;
26.266;1.0085;-0.0071;0.2808;-4.1298;1.1527;-0.9847;29.9418;
26.287;1.0100;-0.0032;0.2730;-4.1679;1.0687;-0.8473;29.9418;
26.308;1.0115;-0.0076;0.2744;-4.2672;0.8626;-0.8321;29.8476;
26.329;1.0137;-0.0029;0.2805;-4.4122;1.1298;-0.8397;29.9418;
26.350;1.0054;0.0000;0.2716;-4.1221;1.1374;-0.7328;30.0359;
26.371;1.0129;-0.0005;0.2683;-3.9389;0.9389;-0.7634;29.9418;
26.392;1.0181;-0.0100;0.2747;-4.1069;1.0763;-0.7634;30.0359;
26.413;1.0054;-0.0059;0.2699;-4.1603;0.9847;-1.0382;30.0359;
26.434;1.0085;-0.0049;0.2799;-4.1603;1.1985;-0.8397;30.0359;
26.455;1.0149;0.0024;0.2785;-4.0229;1.0305;-0.7252;29.8476;
26.476;1.0100;-0.0061;0.2788;-4.0305;0.9466;-0.8473;30.0359;
26.497;1.0103;-0.0078;0.2633;-4.2824;0.9466;-0.9008;29.8476;
26.518;1.0154;-0.0061;0.2741;-4.2366;0.9008;-0.9160;30.0359;
26.539;1.0125;-0.0061;0.2733;-4.2519;0.9771;-0.9847;29.9418;
26.560;1.0115;-0.0051;0.2763;-4.1832;1.1069;-0.8015;30.0359;
26.581;1.0042;-0.0046;0.2785;-4.2443;1.0229;-0.8779;30.0359;
26.602;1.0164;0.0010;0.2747;-4.1374;1.1069;-0.7939;29.9418;
26.623;1.0093;-0.0022;0.2730;-4.0992;0.9466;-1.0611;29.9418;
26.644;1.0081;-0.0068;0.2724;-4.1603;0.9695;-0.9466;30.0359;
26.665;1.0107;-0.0042;0.2738;-4.1756;1.0153;-0.8015;30.1300;
26.686;1.0117;-0.0066;0.2663;-4.1832;1.1221;-0.9237;29.9418;
26.707;1.0068;-0.0063;0.2686;-4.2137;1.0611;-0.9237;30.0359;
26.728;1.0076;-0.0090;0.2688;-4.2061;1.0534;-0.6947;30.0359;
26.749;1.0115;-0.0007;0.2799;-4.0382;1.0153;-1.0229;30.0359;
26.770;1.0115;-0.0049;0.2733;-4.1527;1.0229;-0.9618;29.9418;
26.791;1.0159;-0.0081;0.2713;-4.1908;0.8626;-0.7405;30.1300;
26.813;1.0146;0.0005;0.2747;-4.2061;0.8855;-0.8321;30.0359;
26.834;1.0134;-0.0095;0.2794;-4.2672;1.1450;-0.9008;29.9418;
26.855;1.0063;0.0000;0.2827;-4.3740;1.0992;-0.9466;29.9418;
26.876;1.0129;0.0000;0.2833;-4.1756;1.0000;-0.8550;29.9418;
26.897;1.0090;-0.0125;0.2763;-4.1756;0.9542;-1.0229;30.0359;
26.918;1.0098;-0.0017;0.2821;-4.1069;0.8855;-0.9389;29.9418;
26.939;1.0129;-0.0095;0.2808;-4.0382;0.8321;-0.9466;29.9418;
26.960;1.0129;-0.0034;0.2763;-4.1298;0.8779;-0.5267;30.0359;
26.981;1.0129;-0.0039;0.2797;-4.2748;1.0992;-0.7786;30.0359;
27.002;1.0137;-0.0088;0.2763;-4.2824;1.0458;-1.0076;30.0359;
27.023;1.0098;-0.0076;0.2744;-4.1298;0.9924;-0.7710;29.9418;
27.044;1.0051;0.0015;0.2702;-4.1527;1.3435;-0.6412;29.9418;
27.065;1.0156;-0.0037;0.2794;-4.1145;0.8397;-0.8015;30.0359;
27.086;1.0066;-0.0063;0.2735;-4.0687;1.1221;-0.9847;30.0359;
27.107;1.0161;0.0000;0.2830;-4.1374;1.2290;-0.8168;30.0359;
27.128;1.0098;-0.0024;0.2841;-4.1527;0.8550;-0.6489;30.0359;
27.149;1.0039;-0.0020;0.2858;-4.0534;0.9542;-0.6336;30.0359;
27.170;1.0149;-0.0022;0.2785;-4.3206;1.0153;-0.7099;30.0359;
27.191;1.0132;-0.0112;0.2741;-4.0840;1.0076;-0.7405;30.0359;
27.212;1.0144;-0.0044;0.2780;-4.0458;0.8779;-1.0229;30.0359;
27.233;1.0090;-0.0042;0.2888;-4.1679;1.1298;-1.0153;29.9418;
27.254;1.0071;0.0010;0.2769;-4.0382;1.0687;-0.8473;30.0359;
27.275;1.0125;-0.0032;0.2735;-4.0076;1.2366;-0.8702;30.0359;
27.296;1.0071;-0.0012;0.2763;-4.2519;1.0000;-0.9389;30.0359;
27.317;1.0154;-0.0110;0.2680;-4.3206;0.9847;-0.7786;30.0359;
27.338;1.0076;-0.0017;0.2741;-4.1832;1.0382;-0.8473;30.0359;
27.359;1.0063;-0.0063;0.2794;-3.9237;1.1756;-0.8015;30.0359;
27.380;1.0120;-0.0066;0.2852;-4.2443;0.9924;-1.1374;30.0359;
27.401;1.0076;-0.0098;0.2738;-4.0687;1.1221;-0.6947;30.0359;
27.422;1.0081;0.0002;0.2777;-4.3511;1.1908;-0.8321;30.0359;
27.443;1.0176;-0.0078;0.2680;-4.3053;1.1298;-0.8244;30.0359;
27.465;1.0132;-0.0010;0.2730;-4.0458;1.0992;-0.9695;29.9418;
27.487;1.0078;-0.0049;0.2774;-4.1908;1.0229;-0.9389;30.0359;
27.508;1.0088;-0.0032;0.2824;-4.1527;0.9160;-0.8397;29.9418;
27.529;1.0078;0.0005;0.2724;-4.1298;0.8626;-1.0687;29.9418;
27.550;1.0139;-0.0012;0.2713;-4.1756;1.0611;-0.8321;30.0359;
27.571;1.0049;-0.0061;0.2785;-4.3435;0.9542;-0.9466;29.9418;
27.592;1.0127;-0.0081;0.2697;-4.1374;1.1298;-0.6794;29.9418;
27.613;1.0132;-0.0068;0.2719;-4.1298;0.8092;-0.7176;30.0359;
27.634;1.0154;-0.0046;0.2744;-4.2672;1.1069;-1.0000;29.9418;
27.655;1.0146;-0.0081;0.2763;-4.3511;1.1374;-0.9924;30.0359;
27.676;1.0144;-0.0044;0.2835;-4.2748;1.0611;-0.7939;30.0359;
27.697;1.0098;0.0017;0.2821;-4.1908;1.1985;-1.0000;30.0359;
27.718;1.0125;-0.0039;0.2816;-4.0611;1.1450;-0.9160;29.9418;
27.739;1.0117;-0.0054;0.2711;-4.1679;1.0076;-0.9237;30.0359;
27.761;1.0120;-0.0059;0.2752;-4.3435;1.0305;-0.8550;29.9418;
27.782;1.0112;-0.0015;0.2738;-3.8626;1.0000;-0.9618;29.9418;
27.803;1.0088;-0.0078;0.2785;-4.0763;1.0305;-0.8244;30.0359;
27.824;1.0085;-0.0042;0.2758;-4.2366;0.9237;-0.8855;29.9418;
27.845;1.0120;-0.0066;0.2680;-4.1985;1.0000;-0.8321;29.9418;
27.866;1.0100;-0.0059;0.2788;-3.9542;1.1374;-0.8473;29.9418;
27.887;1.0078;-0.0054;0.2724;-4.1603;1.0305;-1.0000;29.9418;
27.908;1.0149;-0.0059;0.2808;-4.0687;0.8550;-0.8931;29.9418;
27.929;1.0122;-0.0076;0.2788;-4.2443;0.8702;-0.8321;30.0359;
27.950;1.0093;-0.0093;0.2794;-4.1527;0.7710;-0.8779;30.0359;
27.971;1.0073;-0.0078;0.2827;-4.1374;1.1374;-0.9237;29.9418;
27.992;1.0137;0.0000;0.2730;-4.2443;1.0534;-0.6870;29.9418;
28.013;1.0125;0.0000;0.2772;-4.1985;1.0153;-0.9313;30.0359;
28.034;1.0125;0.0010;0.2785;-4.2519;1.0382;-0.8397;30.0359;
28.055;1.0122;-0.0012;0.2794;-4.1069;1.1069;-0.7099;30.0359;
28.076;1.0164;-0.0076;0.2730;-4.1145;1.0534;-0.8779;29.9418;
28.097;1.0134;-0.0081;0.2708;-4.0992;1.0382;-0.8626;29.9418;
28.118;1.0103;-0.0093;0.2774;-4.2901;1.1908;-0.8244;29.9418;
28.139;1.0125;-0.0076;0.2841;-4.0840;1.0382;-0.9389;30.0359;
28.160;1.0088;0.0007;0.2697;-4.4046;0.9084;-0.9924;29.8476;
28.181;1.0090;-0.0034;0.2797;-4.0458;0.9466;-1.0305;30.0359;
28.202;1.0093;-0.0066;0.2758;-4.0611;0.8550;-0.8168;30.0359;
28.223;1.0078;-0.0044;0.2805;-4.1832;0.9771;-1.0076;30.0359;
28.244;1.0168;-0.0044;0.2760;-4.1450;0.8626;-1.0305;29.9418;
28.265;1.0110;-0.0100;0.2785;-4.0153;1.0076;-0.9084;30.0359;
28.286;1.0117;-0.0022;0.2738;-3.9160;1.1145;-0.8931;29.9418;
28.307;1.0127;-0.0078;0.2741;-4.1832;1.0458;-0.7557;29.9418;
28.328;1.0105;-0.0049;0.2744;-4.1527;1.0534;-1.0229;29.9418;
28.349;1.0100;-0.0029;0.2705;-4.1374;1.0000;-0.8321;30.0359;
28.370;1.0076;-0.0066;0.2763;-4.3206;1.0153;-1.0534;29.9418;
28.391;1.0063;-0.0090;0.2849;-4.2290;1.1069;-0.8931;29.9418;
28.412;1.0093;-0.0066;0.2816;-4.3588;0.8855;-0.7328;30.1300;
28.433;1.0049;-0.0093;0.2763;-4.3588;0.9771;-0.8168;30.0359;
28.454;1.0110;-0.0066;0.2688;-4.3282;1.0076;-0.8473;30.0359;
28.475;1.0125;-0.0100;0.2727;-4.1298;0.8397;-0.8321;30.0359;
28.496;1.0093;0.0027;0.2788;-4.3282;1.0153;-0.7786;30.0359;
28.517;1.0071;-0.0078;0.2794;-4.1069;1.1450;-1.0458;29.9418;
28.538;1.0105;-0.0098;0.2755;-4.3511;1.1527;-0.8779;30.0359;
28.559;1.0110;-0.0029;0.2830;-4.1298;1.0763;-0.9313;29.9418;
28.580;1.0063;-0.0027;0.2769;-4.3740;1.0611;-0.9618;30.0359;
28.601;1.0115;-0.0015;0.2819;-4.0534;1.0305;-0.8855;30.0359;
28.622;1.0068;-0.0081;0.2824;-4.1298;0.7939;-1.0840;29.9418;
28.643;1.0112;-0.0051;0.2766;-4.3664;1.0305;-0.9313;29.9418;
28.664;1.0095;-0.0024;0.2797;-4.1756;0.9695;-1.0076;30.0359;
28.685;1.0132;-0.0076;0.2794;-4.1374;1.1450;-0.9237;29.9418;
28.706;1.0093;-0.0081;0.2733;-4.1298;0.8855;-0.8779;30.0359;
28.727;1.0103;-0.0059;0.2719;-4.0916;0.9466;-0.7176;29.9418;
28.748;1.0139;-0.0051;0.2785;-4.1450;0.9389;-0.8473;29.9418;
28.769;1.0093;-0.0081;0.2752;-4.1679;0.9695;-0.8779;29.9418;
28.791;1.0120;-0.0027;0.2841;-3.9008;1.1374;-1.0382;30.0359;
28.812;1.0132;-0.0020;0.2738;-4.1221;1.0382;-0.9389;29.9418;
28.833;1.0134;-0.0010;0.2785;-4.0916;1.0687;-0.8473;29.9418;
28.854;1.0149;-0.0076;0.2794;-4.1298;1.0687;-0.7710;30.0359;
28.875;1.0098;-0.0049;0.2827;-4.2366;1.0534;-0.8244;29.9418;
28.897;1.0090;-0.0059;0.2713;-4.1985;0.8855;-0.8550;29.9418;
28.918;1.0081;-0.0081;0.2777;-4.0153;0.9924;-0.9389;30.0359;
28.939;1.0132;0.0000;0.2733;-4.1603;1.1756;-0.8626;29.9418;
28.960;1.0098;-0.0037;0.2735;-4.1603;1.0153;-0.9542;30.0359;
28.981;1.0081;-0.0056;0.2735;-4.2824;1.0229;-0.9389;29.9418;
29.002;1.0122;-0.0024;0.2841;-4.3130;1.0916;-0.9084;30.0359;
29.023;1.0088;-0.0024;0.2733;-4.3893;1.2061;-0.8168;30.0359;
29.044;1.0115;-0.0051;0.2694;-4.2977;0.9237;-0.8244;30.0359;
29.065;1.0122;-0.0100;0.2785;-4.1679;1.2824;-0.9695;29.9418;
29.086;1.0095;-0.0049;0.2688;-4.0534;0.9313;-0.8855;29.9418;
29.107;1.0129;-0.0093;0.2730;-4.1603;0.9847;-0.9542;30.0359;
29.128;1.0103;-0.0081;0.2722;-3.9771;1.0534;-0.6489;30.1300;
29.149;1.0078;-0.0054;0.2821;-4.1374;1.1145;-0.8015;29.9418;
29.170;1.0081;-0.0061;0.2741;-4.0992;0.8092;-0.8015;30.0359;
29.191;1.0098;-0.0024;0.2799;-4.2977;0.9160;-0.8855;30.0359;
29.212;1.0125;-0.0054;0.2730;-4.2977;1.1298;-0.7328;29.9418;
29.233;1.0117;-0.0093;0.2785;-4.0916;1.1069;-0.8779;29.9418;
29.254;1.0149;-0.0061;0.2841;-4.0992;1.2901;-1.0534;30.0359;
29.275;1.0098;-0.0024;0.2733;-4.2443;1.1527;-1.0000;30.0359;
29.296;1.0159;-0.0076;0.2755;-4.2061;1.0763;-0.9313;29.9418;
29.317;1.0046;-0.0054;0.2722;-4.3359;1.1221;-1.0611;29.9418;
29.338;1.0044;-0.0076;0.2735;-4.0229;1.0840;-0.8092;30.0359;
29.359;1.0071;-0.0044;0.2810;-4.0153;0.8702;-0.8855;30.1300;
29.380;1.0054;-0.0039;0.2733;-4.1527;0.9542;-0.7557;30.0359;
29.401;1.0027;-0.0068;0.2724;-3.9695;0.9847;-0.8779;29.9418;
29.422;1.0129;-0.0085;0.2769;-4.3053;0.9618;-0.8626;30.0359;
29.443;1.0120;0.0015;0.2874;-4.3893;0.9618;-0.7328;30.0359;
29.465;1.0120;0.0012;0.2783;-4.3130;1.0992;-1.1603;30.0359;
29.486;1.0098;0.0020;0.2794;-4.3740;0.9618;-0.9542;30.0359;
29.507;1.0103;-0.0005;0.2766;-4.1374;1.1679;-0.7863;30.0359;
29.528;1.0110;-0.0020;0.2738;-4.2214;1.0305;-0.7786;30.0359;
29.549;1.0107;-0.0066;0.2813;-4.3511;1.1603;-0.7939;30.1300;
29.570;1.0103;-0.0010;0.2735;-4.2061;0.9008;-0.8092;30.0359;
29.591;1.0156;-0.0032;0.2802;-4.2672;1.1069;-0.7481;29.9418;
29.612;1.0042;0.0024;0.2808;-4.2290;1.2290;-0.9542;29.9418;
29.633;1.0107;-0.0020;0.2763;-4.3053;1.0840;-0.8092;30.0359;
29.654;1.0103;-0.0066;0.2788;-4.1298;1.0534;-0.8397;30.1300;
29.675;1.0110;-0.0068;0.2780;-4.0000;1.0687;-0.8473;30.0359;
29.696;1.0093;-0.0046;0.2852;-4.1908;1.0611;-0.9695;30.0359;
29.717;1.0120;-0.0066;0.2755;-4.1527;0.7939;-0.8931;29.9418;
29.739;1.0137;-0.0095;0.2749;-4.1145;0.9313;-0.8321;29.9418;
29.760;1.0066;-0.0032;0.2749;-4.2443;1.0076;-0.7710;30.0359;
29.781;1.0151;0.0002;0.2808;-4.2977;1.0611;-0.8702;29.9418;
29.802;1.0071;-0.0046;0.2774;-4.2443;0.7939;-0.7252;30.0359;
29.823;1.0081;-0.0032;0.2858;-4.1527;0.8626;-0.7786;29.9418;
29.844;1.0085;-0.0054;0.2863;-4.2595;1.1756;-0.9389;29.9418;
29.865;1.0063;-0.0088;0.2794;-4.1450;1.0458;-0.9008;30.0359;
29.886;1.0132;-0.0032;0.2727;-4.1069;1.0992;-0.7557;30.0359;
29.907;1.0085;-0.0005;0.2733;-4.2901;1.0534;-0.8015;29.9418;
29.928;1.0122;-0.0090;0.2722;-4.1756;1.0000;-0.9084;30.1300;
29.949;1.0042;-0.0034;0.2716;-4.2443;1.0076;-0.7328;30.0359;
29.970;1.0161;-0.0007;0.2785;-4.2443;0.9847;-0.8321;29.9418;
29.991;1.0076;-0.0049;0.2752;-4.1221;0.9771;-0.9695;30.0359;
30.012;1.0081;-0.0017;0.2741;-4.3740;0.9389;-1.0611;30.0359;
30.033;1.0137;-0.0085;0.2774;-4.1985;1.0382;-0.7481;30.0359;
30.054;1.0146;-0.0044;0.2733;-4.1679;0.9695;-0.7786;30.0359;
30.075;1.0142;-0.0020;0.2794;-4.1679;1.0000;-0.9008;29.9418;
30.096;1.0107;-0.0056;0.2719;-4.2824;0.9313;-0.6870;30.0359;
30.117;1.0137;-0.0024;0.2716;-4.1298;1.0153;-0.8321;30.0359;
30.138;1.0129;-0.0076;0.2730;-4.1908;1.0840;-1.0153;30.0359;
30.159;1.0071;-0.0012;0.2830;-4.0229;0.9389;-0.9084;30.0359;
30.180;1.0073;-0.0066;0.2666;-3.9695;0.8473;-1.0000;29.9418;
30.201;1.0129;-0.0066;0.2702;-3.9618;0.9466;-0.7099;30.0359;
30.222;1.0088;-0.0066;0.2655;-4.1603;0.9847;-0.7634;30.0359;
30.243;1.0049;-0.0056;0.2838;-4.1527;1.1985;-0.7863;29.9418;
30.264;1.0090;-0.0076;0.2733;-3.9695;0.9542;-0.6412;29.9418;
30.285;1.0188;-0.0032;0.2821;-4.3130;0.8855;-1.0534;30.0359;
30.307;1.0049;-0.0049;0.2774;-4.0916;0.9542;-1.0458;30.0359;
30.328;1.0078;-0.0027;0.2760;-4.1450;0.9084;-0.9389;30.0359;
30.349;1.0078;-0.0090;0.2694;-4.2748;1.0458;-0.9008;29.9418;
30.370;1.0151;-0.0029;0.2838;-4.2366;0.9466;-0.7634;30.0359;
30.391;1.0115;-0.0071;0.2733;-4.2061;0.9542;-1.0382;30.0359;
30.412;1.0134;-0.0037;0.2724;-4.0153;1.0229;-0.8931;30.0359;
30.433;1.0176;-0.0049;0.2774;-4.0916;1.2366;-0.9618;30.0359;
30.454;1.0105;0.0005;0.2680;-4.1832;0.8931;-0.8931;29.9418;
30.475;1.0120;-0.0073;0.2816;-3.9237;1.0382;-0.8321;30.0359;
30.496;1.0071;-0.0046;0.2730;-4.2214;0.9847;-0.8702;30.0359;
30.517;1.0081;-0.0044;0.2752;-4.1603;0.9542;-0.9389;30.0359;
30.538;1.0137;-0.0039;0.2799;-4.1603;1.1221;-0.9160;29.9418;
30.559;1.0076;0.0017;0.2791;-3.9924;1.0076;-0.8702;30.0359;
30.581;1.0071;-0.0017;0.2735;-4.1679;0.9771;-0.6565;29.9418;
30.602;1.0110;-0.0071;0.2780;-4.2824;1.0153;-0.8244;30.0359;
30.623;1.0049;-0.0034;0.2713;-4.1985;1.0000;-0.6412;30.0359;
30.644;1.0105;-0.0049;0.2855;-4.2901;0.9389;-0.7939;30.0359;
30.665;1.0110;-0.0088;0.2691;-4.1069;0.9542;-0.9084;30.0359;
30.686;1.0085;-0.0068;0.2821;-4.2672;1.0534;-0.8473;29.9418;
30.707;1.0078;-0.0022;0.2774;-4.2901;1.0382;-0.9008;30.0359;
30.728;1.0181;0.0054;0.2633;-4.1298;0.9771;-0.8550;30.1300;
30.749;1.0098;-0.0042;0.2738;-3.9924;0.8473;-0.9160;29.9418;
30.771;1.0090;-0.0107;0.2827;-3.9695;0.9771;-0.8168;29.9418;
30.792;1.0103;-0.0066;0.2777;-3.9924;1.1221;-0.9008;30.0359;
30.813;1.0117;-0.0061;0.2874;-4.1603;1.0687;-0.7939;30.0359;
30.835;1.0105;-0.0068;0.2758;-4.3130;0.9847;-0.7557;29.9418;
30.855;1.0112;-0.0073;0.2846;-4.1832;0.9924;-1.0305;30.0359;
30.876;1.0083;-0.0063;0.2794;-4.0992;0.9008;-0.8015;30.0359;
30.897;1.0122;-0.0054;0.2738;-4.3664;0.9313;-0.7023;30.0359;
30.918;1.0095;-0.0093;0.2697;-4.1450;1.0000;-0.9237;30.0359;
30.939;1.0159;-0.0051;0.2733;-4.2672;1.1069;-1.0534;29.9418;
30.960;1.0083;-0.0017;0.2858;-4.4351;0.9847;-0.7710;30.0359;
30.981;1.0076;-0.0049;0.2730;-4.2290;1.0000;-0.8550;30.0359;
31.002;1.0107;-0.0137;0.2774;-4.2519;0.8092;-0.7481;30.0359;
31.023;1.0132;-0.0073;0.2724;-4.1221;1.0534;-0.9695;29.9418;
31.044;1.0078;0.0002;0.2802;-4.0305;0.9084;-0.9008;29.9418;
31.065;1.0129;-0.0090;0.2819;-4.1603;0.8931;-0.7405;30.0359;
31.086;1.0149;-0.0007;0.2808;-4.0992;0.8779;-0.8702;30.0359;
31.107;1.0129;-0.0034;0.2749;-4.2061;0.9695;-0.9542;30.0359;
31.128;1.0115;-0.0002;0.2813;-3.8931;0.8321;-0.9160;29.9418;
31.149;1.0090;-0.0022;0.2841;-4.1298;0.9771;-0.9313;30.0359;
31.170;1.0159;-0.0061;0.2752;-4.0611;1.1145;-0.9924;30.0359;
31.191;1.0078;-0.0059;0.2772;-4.3130;0.9313;-0.8015;30.0359;
31.212;1.0088;-0.0042;0.2760;-4.3206;1.1832;-0.7252;29.9418;
31.233;1.0076;0.0002;0.2719;-4.2137;1.0916;-0.8397;30.0359;
31.254;1.0103;-0.0083;0.2730;-4.1298;1.1221;-0.7939;29.9418;
31.275;1.0129;-0.0059;0.2716;-4.2748;1.0229;-0.7710;30.0359;
31.296;1.0112;-0.0032;0.2780;-4.2137;1.1374;-0.9160;30.0359;
31.317;1.0117;-0.0024;0.2702;-4.0000;1.0992;-1.0000;30.0359;
31.338;1.0132;-0.0068;0.2838;-4.2672;0.8015;-0.7939;29.9418;
31.359;1.0100;-0.0061;0.2702;-4.1374;1.2290;-0.6718;30.0359;
31.380;1.0103;-0.0044;0.2813;-4.1603;1.1374;-0.8702;30.0359;
31.401;1.0125;-0.0095;0.2749;-4.1908;1.0229;-0.8321;29.9418;
31.422;1.0117;-0.0066;0.2874;-4.1908;1.0840;-0.9847;30.1300;
31.443;1.0137;-0.0046;0.2780;-4.4198;1.2595;-0.7405;30.0359;
31.464;1.0093;-0.0117;0.2744;-4.1221;1.1069;-0.7710;30.0359;
31.485;1.0068;-0.0093;0.2672;-4.3206;1.1298;-1.0458;29.9418;
31.506;1.0098;-0.0061;0.2697;-4.2061;1.1221;-0.8702;30.0359;
31.527;1.0071;-0.0063;0.2747;-4.3053;1.1603;-0.9466;30.0359;
31.548;1.0134;-0.0063;0.2785;-4.0992;1.2443;-1.0305;30.0359;
31.569;1.0066;-0.0063;0.2758;-4.1069;1.0076;-0.9618;30.0359;
31.590;1.0134;-0.0039;0.2791;-3.9237;0.9466;-0.9924;30.1300;
31.611;1.0100;-0.0022;0.2824;-4.2672;1.0840;-1.0382;30.1300;
31.632;1.0173;-0.0022;0.2772;-4.0076;1.0076;-0.8397;30.0359;
31.653;1.0139;-0.0027;0.2794;-4.1679;1.0687;-0.8702;30.0359;
31.674;1.0129;-0.0039;0.2830;-4.2672;1.0153;-0.9695;29.9418;
31.695;1.0090;-0.0037;0.2741;-4.1603;1.0458;-0.8702;30.0359;
31.716;1.0103;-0.0068;0.2688;-4.3893;0.9847;-0.7405;29.9418;
31.737;1.0103;-0.0081;0.2711;-4.1298;0.8550;-0.8626;30.0359;
31.758;1.0093;-0.0071;0.2772;-4.1450;0.9389;-0.8397;29.9418;
31.779;1.0110;-0.0103;0.2763;-3.9618;0.9313;-0.8244;29.9418;
31.800;1.0137;-0.0056;0.2827;-4.1756;1.3053;-0.8321;30.0359;
31.821;1.0159;-0.0039;0.2794;-4.1527;1.1756;-0.9008;30.0359;
31.842;1.0112;-0.0034;0.2733;-4.1908;0.9237;-1.0305;30.1300;
31.863;1.0090;-0.0020;0.2760;-4.1069;1.2901;-0.9160;30.0359;
31.884;1.0110;-0.0076;0.2772;-4.2748;0.9313;-0.7786;29.9418;
31.905;1.0193;-0.0037;0.2663;-4.3130;1.0687;-0.8092;30.0359;
31.926;1.0037;-0.0088;0.2686;-4.0382;1.1679;-0.9847;30.0359;
31.947;1.0063;-0.0042;0.2794;-4.2061;0.9618;-0.7939;29.9418;
31.968;1.0100;-0.0029;0.2780;-4.2137;1.1527;-0.8397;29.9418;
31.990;1.0105;-0.0107;0.2683;-4.0687;0.8321;-0.8855;30.0359;
32.011;1.0076;-0.0071;0.2799;-4.1908;0.8550;-0.8092;29.9418;
32.032;1.0063;-0.0093;0.2830;-4.2901;1.0763;-0.7939;29.9418;
32.053;1.0144;-0.0117;0.2805;-4.0763;1.0382;-0.9924;30.0359;
32.074;1.0137;-0.0132;0.2719;-4.2443;1.0840;-0.9389;30.0359;
32.095;1.0046;-0.0081;0.2730;-4.0000;0.9008;-1.0840;29.9418;
32.116;1.0110;-0.0083;0.2661;-4.0992;1.0992;-1.0840;29.9418;
32.137;1.0088;-0.0073;0.2733;-3.9847;1.2748;-0.9618;30.1300;
32.158;1.0088;-0.0051;0.2783;-4.1985;0.9847;-0.8473;30.0359;
32.179;1.0078;-0.0059;0.2788;-4.3130;0.8397;-0.7939;30.0359;
32.200;1.0112;-0.0066;0.2683;-4.3130;1.0458;-0.8473;30.0359;
32.221;1.0115;-0.0039;0.2652;-4.2137;1.0611;-0.9695;30.1300;
32.242;1.0083;0.0000;0.2813;-4.2061;1.1679;-0.8092;30.0359;
32.263;1.0076;-0.0051;0.2755;-4.2290;1.0382;-0.9237;30.0359;
32.284;1.0112;-0.0076;0.2719;-4.1221;1.1298;-0.8550;30.0359;
32.305;1.0071;-0.0046;0.2783;-4.0992;1.1679;-1.0000;29.9418;
32.326;1.0076;0.0012;0.2785;-4.4198;1.0382;-0.7176;29.9418;
32.347;1.0085;-0.0078;0.2780;-4.1527;0.8855;-0.8779;30.0359;
32.368;1.0073;-0.0010;0.2694;-4.0076;0.9542;-0.9466;30.0359;
32.389;1.0134;-0.0007;0.2794;-4.0992;1.0763;-0.7939;30.0359;
32.410;1.0090;-0.0039;0.2752;-4.3435;1.1145;-0.9618;30.0359;
32.431;1.0120;0.0007;0.2727;-4.2748;1.0000;-0.8626;30.0359;
32.452;1.0105;-0.0076;0.2716;-4.3053;1.0229;-0.9313;30.0359;
32.473;1.0095;-0.0017;0.2816;-4.3130;1.0382;-0.8702;30.0359;
32.494;1.0161;-0.0061;0.2830;-4.2061;1.0382;-0.8397;30.0359;
32.515;1.0110;-0.0042;0.2702;-4.2137;0.9618;-1.0153;30.0359;
32.536;1.0105;-0.0042;0.2772;-4.1527;0.9771;-0.8473;30.0359;
32.557;1.0146;-0.0042;0.2780;-4.1145;1.2290;-0.7634;30.0359;
32.578;1.0178;-0.0049;0.2883;-4.0076;1.0153;-1.0611;29.9418;
32.599;1.0090;-0.0068;0.2735;-4.2061;0.9695;-0.9389;30.0359;
32.621;1.0125;-0.0088;0.2788;-4.2214;1.0382;-0.8550;30.0359;
32.642;1.0071;-0.0012;0.2694;-4.3359;0.7252;-0.8702;30.0359;
32.664;1.0181;-0.0066;0.2805;-4.1908;1.0916;-0.6947;30.0359;
32.685;1.0129;-0.0071;0.2752;-4.3511;1.1527;-0.9313;29.9418;
32.706;1.0098;-0.0024;0.2713;-3.9237;1.1221;-0.9771;30.0359;
32.727;1.0090;-0.0034;0.2758;-4.1221;1.0229;-0.9313;29.9418;
32.748;1.0073;-0.0027;0.2760;-4.1756;1.0534;-0.6947;29.9418;
32.769;1.0093;-0.0061;0.2772;-3.9084;1.1069;-0.7557;30.0359;
32.790;1.0081;-0.0078;0.2699;-4.1756;0.9466;-1.0076;30.0359;
32.811;1.0100;-0.0068;0.2699;-4.1756;0.8855;-0.8168;30.0359;
32.832;1.0144;-0.0056;0.2722;-4.3664;1.0687;-0.7252;30.0359;
32.853;1.0046;-0.0071;0.2891;-3.9847;1.0992;-0.9313;29.9418;
32.874;1.0090;-0.0063;0.2821;-4.2595;1.0000;-0.8931;29.9418;
32.895;1.0098;-0.0081;0.2741;-4.1374;0.9847;-0.9237;30.0359;
32.916;1.0117;-0.0071;0.2683;-4.2901;0.9160;-0.8855;29.9418;
32.938;1.0107;-0.0042;0.2688;-4.2214;0.9771;-0.9313;29.9418;
32.959;1.0176;-0.0085;0.2777;-4.0840;0.8550;-0.9237;30.0359;
32.980;1.0115;-0.0037;0.2716;-4.2901;0.9542;-0.9466;30.0359;
33.001;1.0105;-0.0068;0.2727;-4.0611;1.0153;-0.9847;30.0359;
33.022;1.0076;0.0022;0.2791;-4.1298;1.1374;-0.8244;30.0359;
33.043;1.0034;-0.0049;0.2747;-3.9389;0.9313;-0.7710;29.9418;
33.064;1.0115;-0.0054;0.2858;-4.1374;0.9542;-0.8626;30.0359;
33.085;1.0112;-0.0044;0.2730;-4.1908;1.0000;-0.8702;30.0359;
33.106;1.0129;-0.0015;0.2883;-4.1603;0.9695;-0.8244;30.0359;
33.127;1.0076;-0.0034;0.2733;-4.2290;1.0382;-0.8473;30.0359;
33.148;1.0129;0.0000;0.2747;-4.2366;1.0229;-0.9466;30.0359;
33.169;1.0171;-0.0012;0.2744;-4.1450;0.8550;-0.8550;30.0359;
33.190;1.0024;-0.0044;0.2816;-4.3206;1.0000;-0.7863;29.8476;
33.211;1.0127;-0.0032;0.2780;-4.2214;0.8855;-0.8244;30.0359;
33.232;1.0134;-0.0046;0.2724;-4.0229;0.8397;-1.0229;30.1300;
33.253;1.0134;-0.0068;0.2752;-4.2290;1.0916;-0.9313;30.0359;
33.274;1.0093;-0.0059;0.2705;-4.1908;0.8168;-0.8397;30.0359;
33.295;1.0127;-0.0046;0.2711;-4.0611;0.9847;-0.8244;29.9418;
33.316;1.0051;0.0017;0.2785;-4.1145;1.0611;-0.9771;30.0359;
33.337;1.0112;-0.0083;0.2763;-3.9695;1.0458;-0.7405;30.0359;
33.358;1.0093;-0.0024;0.2783;-4.4504;1.0916;-0.7710;30.0359;
33.379;1.0032;-0.0054;0.2711;-4.1985;0.8931;-0.9466;30.0359;
33.400;1.0105;0.0000;0.2727;-4.2137;0.8473;-1.0687;30.0359;
33.421;1.0105;0.0000;0.2758;-4.2366;1.0382;-0.9084;30.0359;
33.442;1.0049;0.0024;0.2708;-4.0000;1.0000;-0.8473;29.9418;
33.463;1.0154;-0.0005;0.2763;-4.1832;0.9313;-0.9618;29.9418;
33.484;1.0142;-0.0017;0.2708;-4.1756;1.0000;-0.8321;30.0359;
33.505;1.0129;-0.0010;0.2666;-4.2748;1.0382;-0.9466;30.0359;
33.526;1.0159;-0.0068;0.2794;-4.1221;0.9618;-1.0076;29.9418;
33.547;1.0078;-0.0115;0.2755;-4.0916;0.9771;-0.8855;29.9418;
33.568;1.0081;-0.0037;0.2819;-4.1832;0.9618;-0.9466;30.0359;
33.589;1.0076;-0.0042;0.2830;-4.3893;0.9466;-0.7710;30.0359;
33.610;1.0110;0.0027;0.2722;-4.2290;0.9008;-0.9924;30.0359;
33.631;1.0120;-0.0066;0.2755;-4.2824;1.0229;-0.7786;30.1300;
33.652;1.0139;-0.0046;0.2780;-4.0992;0.8626;-0.9695;29.9418;
33.673;1.0095;-0.0054;0.2794;-4.2443;0.9389;-1.0458;30.0359;
33.694;1.0078;-0.0024;0.2724;-4.0916;1.0305;-0.9237;30.0359;
33.715;1.0125;-0.0071;0.2819;-4.2519;1.0229;-0.7176;30.0359;
33.736;1.0066;0.0010;0.2755;-4.1298;1.1145;-0.8473;30.0359;
33.757;1.0115;-0.0063;0.2658;-4.1985;0.9084;-1.0000;30.0359;
33.778;1.0076;-0.0005;0.2735;-4.1679;0.8855;-0.7710;30.0359;
33.799;1.0110;0.0020;0.2785;-4.1527;1.0000;-0.7176;29.9418;
33.820;1.0100;-0.0007;0.2816;-4.2672;1.2366;-0.9695;30.0359;
33.841;1.0129;-0.0032;0.2735;-4.1527;1.0153;-1.0153;30.0359;
33.862;1.0076;-0.0015;0.2852;-4.0534;0.9008;-0.8931;30.0359;
33.883;1.0063;-0.0056;0.2869;-4.0992;0.9542;-0.9160;29.9418;
33.904;1.0161;-0.0017;0.2697;-4.2519;1.0687;-0.8092;29.9418;
33.925;1.0063;-0.0085;0.2824;-4.0840;0.9771;-0.8473;30.0359;
33.946;1.0122;-0.0022;0.2772;-4.1527;1.2290;-0.9008;30.0359;
33.967;1.0137;-0.0063;0.2733;-4.0992;1.0382;-1.0229;29.9418;
33.988;1.0117;-0.0029;0.2694;-4.0840;1.0458;-0.9695;30.0359;
34.009;1.0154;-0.0061;0.2686;-4.1145;1.0534;-0.8473;30.0359;
34.030;1.0125;-0.0066;0.2769;-4.1679;0.9542;-0.9313;29.9418;
34.051;1.0110;-0.0115;0.2747;-4.1679;0.9924;-0.9618;30.0359;
34.072;1.0059;-0.0046;0.2877;-4.3130;1.0611;-0.9847;29.9418;
34.093;1.0107;-0.0059;0.2713;-4.0611;1.0916;-0.7786;30.0359;
34.114;1.0073;-0.0107;0.2819;-4.0992;1.1527;-0.7176;29.9418;
34.135;1.0093;-0.0042;0.2663;-4.1069;1.0992;-0.8397;30.0359;
34.157;1.0063;-0.0112;0.2802;-4.2519;1.2366;-0.8550;30.0359;
34.178;1.0068;-0.0034;0.2769;-4.3206;1.0840;-0.7557;30.0359;
34.199;1.0100;-0.0037;0.2799;-4.2290;0.9008;-0.8397;30.0359;
34.221;1.0085;-0.0098;0.2716;-4.0763;1.0000;-0.7557;30.0359;
34.241;1.0107;-0.0017;0.2780;-4.1221;1.0992;-0.7634;29.9418;
34.262;1.0098;-0.0022;0.2733;-4.0458;1.0458;-0.8855;29.9418;
34.283;1.0132;-0.0083;0.2702;-4.0916;0.9389;-1.0000;30.0359;
34.304;1.0078;-0.0068;0.2772;-4.2137;0.7939;-0.7252;30.0359;
34.325;1.0049;-0.0049;0.2760;-4.2901;1.1221;-0.6641;30.0359;
34.346;1.0132;-0.0022;0.2819;-4.2214;1.1527;-0.7405;29.9418;
34.367;1.0098;-0.0039;0.2719;-4.2214;0.9771;-1.0000;29.9418;
34.388;1.0154;-0.0039;0.2686;-4.1374;1.0687;-0.8092;30.0359;
34.409;1.0088;-0.0078;0.2783;-4.1221;1.1145;-0.8855;30.0359;
34.431;1.0110;-0.0051;0.2863;-4.0076;1.2977;-1.0076;29.9418;
34.452;1.0139;-0.0066;0.2808;-4.1603;1.0992;-0.9924;29.9418;
34.473;1.0083;-0.0054;0.2691;-4.2214;1.0076;-0.8397;30.0359;
34.494;1.0129;-0.0078;0.2816;-4.2061;0.9008;-0.8855;29.9418;
34.515;1.0088;-0.0071;0.2719;-3.9466;0.9847;-0.8550;30.0359;
34.536;1.0139;-0.0042;0.2774;-4.2137;0.9771;-0.7863;30.0359;
34.557;1.0095;-0.0068;0.2813;-4.0611;0.8855;-0.6870;30.0359;
34.578;1.0122;-0.0061;0.2738;-4.0763;0.9695;-0.8626;29.9418;
34.599;1.0151;0.0005;0.2738;-4.1908;1.1221;-1.0153;30.0359;
34.620;1.0122;-0.0068;0.2802;-4.0992;1.0076;-0.7252;30.0359;
34.641;1.0120;0.0007;0.2758;-4.1832;1.0458;-0.8855;30.0359;
34.662;1.0120;-0.0059;0.2713;-4.0305;0.8779;-1.0840;30.0359;
34.683;1.0066;-0.0059;0.2855;-4.2443;1.0000;-0.8550;29.9418;
34.704;1.0015;-0.0056;0.2785;-4.1908;1.0229;-0.6260;30.0359;
34.725;1.0132;-0.0005;0.2694;-4.2061;0.8092;-0.8855;29.9418;
34.746;1.0122;-0.0032;0.2672;-4.2519;1.1298;-1.2214;30.0359;
34.767;1.0073;-0.0059;0.2608;-4.0763;1.2672;-0.9237;29.9418;
34.788;1.0042;-0.0068;0.2838;-4.3359;1.1985;-0.8550;29.9418;
34.809;1.0142;-0.0078;0.2760;-3.9160;0.9542;-1.0382;30.0359;
34.830;1.0078;-0.0103;0.2741;-4.1221;1.0916;-0.9008;30.0359;
34.851;1.0093;-0.0039;0.2741;-4.0000;0.9695;-0.8092;29.9418;
34.872;1.0098;0.0010;0.2819;-4.1069;0.8550;-0.9313;30.0359;
34.893;1.0164;-0.0015;0.2838;-4.2290;1.1603;-0.9466;30.0359;
34.914;1.0154;-0.0042;0.2785;-4.4122;1.1756;-0.8168;30.0359;
34.935;1.0134;-0.0017;0.2741;-4.3893;0.7176;-0.9160;29.9418;
34.956;1.0105;0.0032;0.2772;-4.2977;1.2214;-0.7863;29.9418;
34.977;1.0103;-0.0059;0.2777;-4.2366;0.9771;-0.7481;29.9418;
34.999;1.0093;0.0015;0.2633;-4.2595;1.0000;-1.0153;30.0359;
35.020;1.0054;-0.0073;0.2799;-4.0687;1.1374;-0.8855;29.9418;
35.041;1.0093;-0.0088;0.2819;-4.2061;0.9771;-0.7176;30.0359;
35.062;1.0049;-0.0056;0.2738;-4.3206;1.0840;-0.9160;29.9418;
35.083;1.0098;-0.0098;0.2810;-4.1756;1.0153;-0.7252;30.0359;
35.104;1.0105;-0.0037;0.2699;-4.1069;0.9160;-0.7863;30.0359;
35.125;1.0117;-0.0024;0.2694;-4.0840;0.9771;-0.9084;30.1300;
35.146;1.0081;-0.0071;0.2705;-4.2595;0.9542;-0.8855;29.9418;
35.167;1.0085;-0.0044;0.2711;-4.2901;0.9695;-0.9313;30.0359;
35.188;1.0100;-0.0056;0.2763;-4.3435;0.9618;-0.8015;30.1300;
35.209;1.0134;-0.0029;0.2791;-4.2977;1.1145;-0.9542;30.0359;
35.230;1.0071;-0.0024;0.2821;-4.0916;0.9466;-0.7939;29.9418;
35.251;1.0107;-0.0044;0.2749;-4.3282;0.8855;-0.7328;30.0359;
35.273;1.0107;-0.0059;0.2724;-4.3435;1.2137;-0.8397;30.0359;
35.294;1.0103;-0.0042;0.2722;-4.3435;0.8015;-0.9924;29.9418;
35.315;1.0117;-0.0071;0.2794;-4.2901;1.0763;-0.9389;30.0359;
35.336;1.0164;-0.0022;0.2702;-4.0687;1.0611;-0.7634;29.9418;
35.357;1.0066;-0.0071;0.2702;-4.2137;0.8244;-0.8855;30.0359;
35.378;1.0083;-0.0059;0.2727;-4.1221;0.9618;-0.8779;30.0359;
35.399;1.0159;-0.0037;0.2741;-4.2519;1.0992;-0.8015;30.0359;
35.420;1.0125;-0.0032;0.2727;-4.1527;0.9771;-0.8855;29.9418;
35.441;1.0132;-0.0071;0.2813;-4.2290;1.0229;-0.7557;29.9418;
35.462;1.0125;-0.0059;0.2713;-4.2366;1.0000;-0.8244;29.9418;
35.483;1.0120;-0.0049;0.2772;-4.2290;0.9084;-0.8244;29.9418;
35.504;1.0137;0.0007;0.2672;-4.1069;1.0382;-0.9008;30.0359;
35.525;1.0098;-0.0059;0.2686;-4.0916;1.2595;-0.8321;30.1300;
35.546;1.0139;-0.0029;0.2808;-4.1908;0.9924;-0.8550;29.9418;
35.567;1.0129;-0.0010;0.2752;-3.9771;0.9618;-0.8931;30.0359;
35.588;1.0125;-0.0078;0.2724;-4.1679;1.0305;-0.8473;29.9418;
35.609;1.0088;-0.0051;0.2722;-4.0153;0.9542;-0.8473;30.0359;
35.630;1.0129;-0.0044;0.2727;-4.1221;1.1221;-0.7481;30.0359;
35.651;1.0073;-0.0005;0.2702;-3.9542;1.1908;-0.9771;30.0359;
35.672;1.0115;-0.0061;0.2747;-4.2137;1.0763;-1.0153;29.9418;
35.693;1.0085;-0.0051;0.2799;-4.1756;0.9695;-0.8244;30.0359;
35.714;1.0063;-0.0024;0.2799;-4.1832;1.0763;-0.9313;30.0359;
35.735;1.0103;-0.0059;0.2833;-4.4275;0.9160;-0.8473;30.0359;
35.756;1.0076;-0.0017;0.2699;-4.0763;1.0305;-0.8321;29.9418;
35.777;1.0112;-0.0039;0.2816;-4.1527;1.1527;-0.7099;30.1300;
35.798;1.0090;-0.0054;0.2797;-4.2901;1.0153;-1.0534;30.0359;
35.819;1.0134;-0.0059;0.2760;-4.2977;1.1908;-0.9924;30.1300;
35.841;1.0122;-0.0037;0.2733;-4.2061;1.0382;-0.9466;30.0359;
35.862;1.0117;-0.0046;0.2713;-4.1603;0.8092;-0.7786;30.0359;
35.883;1.0100;-0.0061;0.2772;-4.0305;0.9313;-1.0687;29.9418;
35.904;1.0110;-0.0054;0.2683;-4.1527;1.1985;-0.7939;29.9418;
35.925;1.0076;-0.0034;0.2819;-4.2748;0.9084;-0.7405;30.0359;
35.946;1.0127;-0.0066;0.2766;-4.0611;0.9618;-0.7328;30.0359;
35.967;1.0090;-0.0024;0.2722;-4.0229;0.9389;-1.0305;29.9418;
35.988;1.0078;-0.0066;0.2772;-4.1603;1.0305;-0.9084;30.0359;
36.009;1.0103;-0.0063;0.2813;-4.0611;1.0992;-1.0992;29.9418;
36.030;1.0051;-0.0051;0.2722;-4.2901;0.8244;-0.8626;30.0359;
36.051;1.0071;-0.0037;0.2785;-4.1985;1.0153;-0.8473;30.1300;
36.072;1.0076;-0.0020;0.2760;-4.0458;1.1832;-0.7405;30.1300;
36.093;1.0122;-0.0051;0.2708;-4.1145;0.9389;-0.7939;30.0359;
36.115;1.0168;-0.0056;0.2661;-4.2595;0.9695;-0.6565;29.8476;
36.136;1.0183;-0.0042;0.2727;-4.1832;1.0305;-0.8397;30.0359;
36.157;1.0073;-0.0071;0.2783;-4.3206;1.3282;-0.8321;30.0359;
36.178;1.0171;0.0010;0.2735;-4.0153;0.9160;-0.7328;30.0359;
36.199;1.0076;-0.0093;0.2772;-4.1603;0.9084;-0.9237;30.0359;
36.220;1.0154;-0.0039;0.2824;-4.1145;1.1756;-0.9008;29.9418;
36.241;1.0134;-0.0066;0.2805;-4.2366;1.0611;-0.9313;30.0359;
36.262;1.0129;-0.0029;0.2652;-4.2977;1.0382;-0.9542;30.0359;
36.283;1.0095;-0.0081;0.2755;-4.1374;0.9924;-0.9466;30.0359;
36.305;1.0115;0.0000;0.2663;-4.0763;1.0763;-0.9771;30.0359;
36.326;1.0120;-0.0027;0.2724;-4.1221;0.9084;-0.8015;30.0359;
36.347;1.0171;-0.0054;0.2722;-4.3969;1.0229;-0.8015;30.0359;
36.368;1.0112;-0.0051;0.2821;-4.5344;0.9389;-0.9008;30.0359;
36.389;1.0107;-0.0044;0.2846;-4.2366;1.0763;-0.9466;30.0359;
36.410;1.0066;-0.0044;0.2680;-4.3053;0.9389;-0.9695;29.9418;
36.431;1.0083;-0.0117;0.2752;-4.3969;0.9008;-0.6794;29.9418;
36.452;1.0071;-0.0044;0.2722;-4.1756;0.9847;-0.8473;30.0359;
36.473;1.0190;-0.0034;0.2738;-4.2290;0.8092;-0.9618;30.0359;
36.494;1.0149;-0.0029;0.2791;-4.1679;0.9389;-0.6870;29.9418;
36.515;1.0146;-0.0054;0.2799;-4.2137;1.0458;-1.0916;29.9418;
36.536;1.0085;-0.0042;0.2785;-4.2672;0.9466;-1.0916;29.9418;
36.557;1.0120;-0.0027;0.2719;-4.0305;1.0611;-1.0611;29.9418;
36.578;1.0049;-0.0046;0.2833;-4.0611;1.0153;-0.8321;30.0359;
36.599;1.0100;-0.0056;0.2799;-4.1679;0.9618;-1.0305;29.9418;
36.621;1.0071;-0.0083;0.2777;-4.1908;0.9618;-0.6947;29.9418;
36.641;1.0146;-0.0049;0.2735;-4.3130;1.0534;-0.7786;30.0359;
36.662;1.0110;-0.0088;0.2794;-4.1832;1.0076;-1.0153;30.0359;
36.683;1.0122;-0.0083;0.2816;-4.2519;1.1450;-0.8550;30.1300;
36.704;1.0039;-0.0032;0.2763;-3.9924;0.9771;-0.9160;30.0359;
36.725;1.0115;0.0042;0.2860;-3.9237;0.8550;-1.0382;30.0359;
36.746;1.0120;0.0005;0.2733;-4.1832;1.1145;-0.9160;30.0359;
36.767;1.0164;-0.0037;0.2808;-4.1756;1.1527;-0.9008;29.9418;
36.788;1.0063;-0.0017;0.2699;-4.0840;1.0153;-0.8168;30.0359;
36.809;1.0078;-0.0071;0.2741;-4.2137;0.8626;-0.8626;29.9418;
36.830;1.0134;-0.0103;0.2785;-4.1756;0.8855;-0.9542;30.0359;
36.851;1.0105;-0.0010;0.2780;-4.2672;0.9618;-0.8931;30.0359;
36.872;1.0081;-0.0056;0.2780;-4.1374;0.8473;-0.8244;29.9418;
36.893;1.0107;-0.0022;0.2794;-4.2366;0.9542;-0.9313;29.9418;
36.914;1.0051;0.0002;0.2724;-4.0763;0.9618;-0.8931;30.0359;
36.935;1.0061;-0.0015;0.2691;-4.1603;1.0840;-0.6870;30.0359;
36.956;1.0142;-0.0059;0.2697;-4.0382;0.9160;-0.7863;30.0359;
36.977;1.0078;-0.0010;0.2733;-4.1985;1.0840;-1.0000;30.0359;
36.998;1.0115;0.0005;0.2799;-3.9466;1.0916;-0.7634;30.0359;
37.019;1.0137;-0.0029;0.2683;-4.2901;1.0076;-0.9771;30.0359;
37.040;1.0115;-0.0061;0.2738;-3.8779;1.0305;-0.7786;30.0359;
37.061;1.0066;-0.0037;0.2752;-3.9771;0.9924;-1.0229;30.0359;
37.082;1.0093;-0.0051;0.2755;-3.9924;0.8168;-0.9313;29.9418;
37.103;1.0139;-0.0076;0.2827;-4.3359;0.9695;-1.0611;30.0359;
37.124;1.0083;-0.0032;0.2741;-4.3130;1.0458;-0.9542;30.0359;
37.145;1.0149;-0.0044;0.2697;-4.0458;1.0000;-1.0458;30.0359;
37.166;1.0085;-0.0095;0.2788;-4.2290;0.8779;-0.7481;30.0359;
37.187;1.0081;-0.0054;0.2705;-4.1298;1.1069;-0.8168;30.0359;
37.208;1.0107;-0.0032;0.2702;-4.0000;1.0382;-0.8931;30.0359;
37.229;1.0168;-0.0005;0.2719;-4.0229;0.9542;-0.8550;30.0359;
37.250;1.0154;-0.0039;0.2785;-4.0534;1.1145;-0.8397;29.9418;
37.271;1.0142;-0.0068;0.2699;-4.0534;0.9847;-0.8779;30.0359;
37.292;1.0110;0.0022;0.2763;-4.1832;1.0534;-0.8550;30.0359;
37.313;1.0120;-0.0063;0.2799;-4.2443;0.9160;-0.7176;30.0359;
37.334;1.0139;-0.0020;0.2780;-4.2824;1.1374;-1.0000;30.1300;
37.355;1.0076;-0.0051;0.2821;-4.0687;1.2595;-1.1756;29.9418;
37.376;1.0110;-0.0022;0.2844;-4.0534;1.0458;-0.9847;29.9418;
37.397;1.0093;-0.0071;0.2816;-4.2824;1.0534;-0.8321;30.0359;
37.418;1.0059;-0.0071;0.2683;-4.1374;0.8321;-0.8779;30.0359;
37.439;1.0144;-0.0054;0.2772;-4.2519;1.1069;-0.7786;30.0359;
37.460;1.0154;-0.0017;0.2747;-4.0382;0.8855;-0.7786;30.0359;
37.481;1.0115;-0.0110;0.2738;-3.8779;0.7939;-0.9389;29.9418;
37.502;1.0090;-0.0073;0.2722;-4.0992;1.0305;-0.9542;29.9418;
37.523;1.0134;-0.0017;0.2835;-4.0992;1.0153;-0.7939;29.9418;
37.544;1.0110;-0.0090;0.2724;-4.1756;0.9389;-0.7176;30.0359;
37.565;1.0146;-0.0095;0.2677;-4.0916;0.9313;-0.7405;30.1300;
37.586;1.0164;-0.0088;0.2852;-4.2595;0.8092;-1.1679;29.9418;
37.607;1.0093;0.0002;0.2766;-4.2137;1.0382;-0.7939;30.0359;
37.628;1.0129;-0.0068;0.2777;-4.3740;1.1450;-0.9008;30.0359;
37.649;1.0166;0.0012;0.2777;-4.1603;1.1756;-1.0534;30.0359;
37.671;1.0134;-0.0032;0.2744;-3.9771;1.0763;-0.8168;30.0359;
37.691;1.0178;-0.0051;0.2785;-4.0992;1.0229;-0.8321;30.0359;
37.712;1.0115;-0.0054;0.2791;-4.0076;1.1756;-0.8702;29.9418;
37.733;1.0137;-0.0090;0.2797;-3.9466;1.0382;-0.9160;30.0359;
37.754;1.0098;-0.0034;0.2785;-4.1832;0.9084;-0.8626;30.0359;
37.775;1.0098;-0.0054;0.2819;-4.3130;1.1679;-0.9237;29.9418;
37.796;1.0098;-0.0076;0.2780;-4.2214;1.0000;-0.9008;29.9418;
37.817;1.0032;-0.0059;0.2802;-4.2290;0.9542;-0.7099;30.0359;
37.838;1.0073;0.0039;0.2716;-4.2672;1.0458;-0.7176;29.9418;
37.859;1.0112;-0.0066;0.2730;-4.2595;1.0611;-0.6947;30.0359;
37.880;1.0090;-0.0100;0.2711;-4.0534;1.0458;-0.9389;30.0359;
37.901;1.0066;-0.0039;0.2708;-4.1221;1.0382;-0.9084;30.0359;
37.922;1.0120;-0.0061;0.2769;-4.0076;0.9924;-0.8779;30.0359;
37.943;1.0098;-0.0051;0.2699;-4.2519;0.8015;-0.7939;30.0359;
37.964;1.0132;-0.0017;0.2769;-3.9771;1.1145;-0.9771;30.0359;
37.985;1.0110;-0.0032;0.2713;-4.3359;1.0534;-0.8702;29.9418;
38.007;1.0081;-0.0012;0.2622;-4.2290;1.0076;-0.9466;29.9418;
38.028;1.0137;-0.0071;0.2744;-4.0000;1.0611;-0.9008;30.1300;
38.049;1.0095;-0.0085;0.2838;-4.0840;0.9313;-0.8244;29.9418;
38.071;1.0081;-0.0078;0.2663;-4.0992;0.9313;-0.8779;30.0359;
38.091;1.0095;-0.0042;0.2677;-4.0992;0.9618;-1.0153;29.9418;
38.112;1.0090;-0.0012;0.2716;-4.3817;1.0992;-1.0458;29.9418;
38.133;1.0063;-0.0015;0.2716;-4.1069;1.1374;-0.8626;30.1300;
38.154;1.0085;-0.0044;0.2735;-4.2443;0.9771;-0.8015;29.8476;
38.175;1.0076;0.0002;0.2752;-4.2214;1.0153;-0.8626;29.9418;
38.196;1.0105;-0.0063;0.2741;-3.8931;1.2366;-0.9542;29.9418;
38.217;1.0115;-0.0012;0.2838;-4.2290;1.1221;-0.6641;30.1300;
38.238;1.0107;-0.0037;0.2755;-4.1069;0.9008;-0.8931;29.9418;
38.259;1.0173;-0.0034;0.2810;-4.0229;1.0153;-0.9618;29.9418;
38.281;1.0076;-0.0017;0.2774;-4.0458;1.0229;-0.7939;29.9418;
38.302;1.0103;-0.0103;0.2855;-4.2137;0.9084;-0.7557;30.0359;
38.323;1.0129;-0.0088;0.2747;-4.0687;0.9695;-0.8244;30.0359;
38.344;1.0107;-0.0071;0.2694;-4.1069;0.9389;-0.8931;29.9418;
38.365;1.0107;-0.0076;0.2799;-4.1832;1.1221;-0.9160;30.0359;
38.386;1.0090;-0.0020;0.2733;-4.1298;1.0076;-0.7863;30.0359;
38.407;1.0063;-0.0017;0.2780;-4.1603;1.1908;-0.9237;30.0359;
38.428;1.0120;-0.0046;0.2747;-4.1985;0.9466;-0.8168;29.9418;
38.449;1.0044;-0.0056;0.2669;-4.1450;1.1221;-0.9771;29.9418;
38.471;1.0081;-0.0032;0.2791;-4.2214;0.9313;-0.8015;30.0359;
38.492;1.0042;-0.0022;0.2846;-4.1145;0.9924;-0.9313;29.9418;
38.513;1.0107;-0.0012;0.2805;-4.1527;1.0458;-1.0229;29.9418;
38.534;1.0085;-0.0056;0.2680;-3.9695;0.9084;-0.7481;29.9418;
38.555;1.0103;-0.0039;0.2735;-4.0534;0.9084;-0.8473;29.9418;
38.576;1.0088;-0.0054;0.2802;-4.0992;1.0000;-1.0534;30.0359;
38.597;1.0071;-0.0010;0.2883;-3.9389;1.0458;-0.9313;30.0359;
38.618;1.0146;-0.0049;0.2899;-4.2061;1.0000;-0.8855;29.9418;
38.639;1.0095;-0.0029;0.2783;-4.1756;0.9008;-1.0763;29.9418;
38.660;1.0186;-0.0020;0.2821;-4.3511;1.0458;-0.8931;29.9418;
38.681;1.0125;-0.0046;0.2719;-4.2290;1.1985;-0.9847;29.9418;
38.702;1.0137;-0.0010;0.2755;-4.3817;1.1069;-0.8473;30.0359;
38.723;1.0107;-0.0020;0.2791;-4.1221;1.1298;-0.9847;29.9418;
38.744;1.0120;-0.0059;0.2799;-4.2519;1.0153;-0.9618;29.9418;
38.765;1.0117;-0.0054;0.2688;-4.2061;1.1069;-0.8626;29.9418;
38.786;1.0103;-0.0093;0.2777;-4.0076;0.8092;-0.9542;30.0359;
38.807;1.0120;-0.0088;0.2741;-4.2519;0.9695;-0.9466;29.9418;
38.828;1.0125;-0.0054;0.2838;-4.0382;1.0916;-1.0458;30.0359;
38.849;1.0168;0.0022;0.2819;-4.0305;1.0458;-0.8702;30.0359;
38.870;1.0088;-0.0017;0.2733;-3.9771;1.1450;-0.9618;29.9418;
38.891;1.0134;-0.0034;0.2744;-4.0687;1.1069;-0.7252;30.0359;
38.912;1.0066;-0.0022;0.2708;-4.1756;1.0916;-0.7557;30.0359;
38.933;1.0100;-0.0068;0.2747;-4.2595;1.0076;-0.8397;30.0359;
38.954;1.0095;0.0027;0.2838;-3.9618;0.8855;-0.6260;29.9418;
38.975;1.0117;-0.0061;0.2869;-4.1679;0.9466;-0.6489;30.0359;
38.996;1.0093;-0.0085;0.2777;-4.2977;1.1069;-0.8321;29.9418;
39.017;1.0078;-0.0068;0.2772;-4.1145;0.9466;-0.8397;30.0359;
39.038;1.0151;-0.0024;0.2772;-4.1374;0.9847;-0.6870;29.9418;
39.059;1.0042;-0.0054;0.2749;-4.0992;0.9618;-0.9695;29.9418;
39.080;1.0112;0.0010;0.2774;-4.2061;1.0305;-0.9466;29.9418;
39.101;1.0042;-0.0076;0.2747;-4.1145;0.9389;-0.6794;29.9418;
39.122;1.0056;-0.0059;0.2833;-4.0611;1.0076;-0.7328;30.0359;
39.143;1.0122;-0.0063;0.2708;-4.1832;0.8626;-0.9466;29.9418;
39.164;1.0100;-0.0046;0.2691;-4.1221;1.0611;-0.8092;30.0359;
39.185;1.0117;-0.0076;0.2813;-3.9466;0.9847;-0.8550;29.9418;
39.206;1.0095;-0.0056;0.2785;-4.1756;1.0229;-0.9237;30.0359;
39.227;1.0154;-0.0002;0.2780;-4.1756;1.0763;-0.8550;30.0359;
39.248;1.0129;-0.0022;0.2833;-4.1832;0.8855;-0.8779;30.0359;
39.269;1.0110;-0.0071;0.2735;-4.1450;0.9924;-0.8550;30.0359;
39.290;1.0120;-0.0054;0.2785;-4.2901;1.0153;-0.9237;29.9418;
39.311;1.0142;-0.0103;0.2785;-4.0916;1.0382;-0.8779;30.0359;
39.332;1.0103;-0.0039;0.2849;-4.2214;0.8855;-0.8168;30.0359;
39.353;1.0117;-0.0054;0.2766;-3.9847;0.9542;-0.6489;30.0359;
39.374;1.0166;-0.0098;0.2760;-4.0916;1.0000;-0.9313;29.9418;
39.395;1.0186;-0.0059;0.2766;-3.9542;0.7557;-0.8397;30.0359;
39.416;1.0103;-0.0027;0.2797;-4.1832;1.1679;-0.8244;29.9418;
39.437;1.0129;0.0005;0.2772;-4.1603;0.9466;-0.7481;30.0359;
39.458;1.0090;0.0002;0.2699;-4.1374;0.8397;-0.8244;29.9418;
39.479;1.0073;-0.0034;0.2694;-4.0534;1.0305;-0.7786;30.0359;
39.501;1.0073;0.0000;0.2708;-4.1145;0.9618;-0.7557;29.9418;
39.522;1.0132;-0.0083;0.2747;-4.2977;1.1221;-0.9847;30.0359;
39.543;1.0085;-0.0093;0.2860;-4.1298;1.0229;-0.8015;29.9418;
39.564;1.0137;-0.0027;0.2711;-4.2290;0.9008;-0.9008;29.9418;
39.585;1.0103;-0.0032;0.2791;-4.1603;0.8626;-0.9237;29.9418;
39.606;1.0132;-0.0012;0.2749;-4.0382;1.0687;-0.9160;29.9418;
39.627;1.0105;-0.0007;0.2799;-4.0687;1.1756;-1.1298;30.0359;
39.648;1.0090;-0.0061;0.2711;-4.2214;1.1145;-0.8626;30.0359;
39.669;1.0115;-0.0068;0.2716;-4.3969;1.0916;-0.7710;30.0359;
39.690;1.0107;-0.0054;0.2769;-4.1679;0.9466;-0.7557;30.0359;
39.711;1.0129;-0.0022;0.2727;-4.4351;1.0534;-0.9847;29.9418;
39.732;1.0142;-0.0024;0.2772;-4.2061;1.0382;-0.7405;30.0359;
39.753;1.0149;-0.0107;0.2724;-4.1679;0.8473;-0.8779;30.0359;
39.774;1.0105;-0.0012;0.2747;-4.3206;1.0992;-0.9237;30.0359;
39.796;1.0125;-0.0032;0.2702;-4.1756;1.0000;-0.9771;30.0359;
39.817;1.0105;-0.0034;0.2813;-4.0153;0.9847;-0.8550;30.0359;
39.838;1.0188;-0.0042;0.2716;-4.1527;0.9466;-0.7939;30.0359;
39.859;1.0125;-0.0081;0.2785;-4.3817;0.9389;-1.0229;29.9418;
39.880;1.0095;-0.0056;0.2824;-4.3282;0.8244;-0.7481;30.0359;
39.901;1.0132;-0.0015;0.2794;-3.9313;1.0000;-0.7481;29.9418;
39.922;1.0122;-0.0085;0.2772;-4.1527;0.9084;-0.6565;30.0359;
39.943;1.0132;-0.0061;0.2819;-4.0382;1.0076;-0.8779;29.9418;
39.964;1.0115;-0.0107;0.2824;-4.2824;1.1221;-0.7176;29.9418;
39.985;1.0081;-0.0134;0.2697;-3.9618;1.2901;-0.7710;30.0359;
40.006;1.0125;-0.0012;0.2763;-4.2672;1.0992;-0.8473;29.9418;
40.027;1.0054;-0.0066;0.2774;-4.0153;1.0840;-0.9008;30.0359;
40.048;1.0146;-0.0088;0.2769;-4.2672;0.9389;-0.9542;30.0359;
40.069;1.0110;-0.0056;0.2802;-4.3817;1.0611;-0.8779;30.1300;
40.090;1.0137;-0.0034;0.2766;-4.1374;0.9313;-1.0611;30.0359;
40.111;1.0088;-0.0037;0.2747;-4.1450;0.9160;-0.9542;30.0359;
40.132;1.0059;-0.0044;0.2711;-4.1679;0.9771;-0.7405;30.0359;
40.153;1.0076;-0.0098;0.2733;-4.4580;0.9771;-0.9084;30.0359;
40.174;1.0056;-0.0051;0.2791;-4.0916;1.0687;-0.9466;30.1300;
40.195;1.0122;-0.0027;0.2680;-3.9695;1.1298;-0.9695;29.9418;
40.216;1.0112;-0.0051;0.2722;-4.1832;1.2214;-0.7863;29.9418;
40.237;1.0142;-0.0090;0.2833;-4.1756;1.0229;-0.8931;30.0359;
40.258;1.0098;-0.0120;0.2730;-4.3130;1.0458;-0.7557;29.9418;
40.279;1.0132;-0.0068;0.2791;-4.3435;0.9924;-0.8321;30.0359;
40.300;1.0156;-0.0061;0.2772;-4.0382;0.9847;-0.9160;30.0359;
40.321;1.0139;-0.0017;0.2699;-4.1832;1.0763;-0.9313;30.0359;
40.342;1.0083;0.0010;0.2772;-4.0000;1.0687;-0.7863;30.0359;
40.363;1.0090;-0.0015;0.2783;-4.0992;1.0992;-0.7405;30.0359;
40.384;1.0120;-0.0083;0.2802;-4.1527;1.0305;-1.0534;30.0359;
40.405;1.0100;-0.0044;0.2849;-4.1221;0.9847;-0.8626;29.9418;
40.426;1.0115;-0.0034;0.2816;-4.1527;1.0611;-0.8626;30.0359;
40.447;1.0105;0.0020;0.2686;-4.1679;0.9466;-0.7328;30.0359;
40.468;1.0103;-0.0068;0.2766;-4.0687;1.0076;-0.9008;29.9418;
40.489;1.0078;-0.0044;0.2744;-4.1221;1.0382;-0.7557;29.9418;
40.510;1.0112;-0.0046;0.2663;-4.1985;0.9695;-0.9237;30.0359;
40.531;1.0107;-0.0081;0.2769;-4.2290;0.9008;-1.1069;30.0359;
40.552;1.0115;-0.0005;0.2747;-4.2748;1.0076;-0.7939;30.0359;
40.573;1.0105;-0.0027;0.2755;-4.2290;1.0611;-0.8473;30.0359;
40.594;1.0088;-0.0029;0.2799;-4.2137;1.0305;-1.0076;29.9418;
40.615;1.0176;-0.0071;0.2797;-4.1527;1.0992;-0.8779;29.9418;
40.636;1.0093;-0.0068;0.2674;-4.1679;1.1908;-0.8550;29.9418;
40.657;1.0093;-0.0020;0.2716;-4.0763;1.0382;-0.7939;29.9418;
40.678;1.0081;-0.0015;0.2916;-4.1450;1.0611;-0.9542;29.9418;
40.699;1.0100;-0.0044;0.2727;-4.1756;1.0229;-0.8244;30.1300;
40.720;1.0076;-0.0063;0.2769;-4.0992;1.0000;-0.9542;30.0359;
40.741;1.0137;-0.0061;0.2747;-4.4122;1.1908;-0.8626;30.0359;
40.762;1.0073;-0.0083;0.2735;-4.0916;0.8550;-0.7863;29.9418;
40.783;1.0076;-0.0042;0.2727;-4.2214;0.7557;-0.8626;30.1300;
40.804;1.0081;-0.0044;0.2777;-4.1832;1.0153;-0.7481;30.0359;
40.825;1.0063;-0.0002;0.2705;-4.1679;1.0611;-0.9237;30.0359;
40.846;1.0129;-0.0056;0.2791;-4.2290;0.9160;-0.8855;30.0359;
40.867;1.0085;-0.0117;0.2777;-4.1908;1.1832;-0.7786;30.0359;
40.888;1.0085;-0.0044;0.2688;-4.1527;0.9008;-0.7405;30.0359;
40.909;1.0122;-0.0056;0.2758;-4.1221;0.9924;-0.8092;29.9418;
40.930;1.0117;-0.0083;0.2733;-4.1679;0.8550;-0.8397;30.0359;
40.951;1.0093;-0.0020;0.2769;-4.1450;0.9313;-0.9466;30.1300;
40.972;1.0132;-0.0049;0.2797;-4.2595;1.0382;-0.8092;29.9418;
40.993;1.0137;-0.0076;0.2760;-4.2137;0.8550;-0.9771;30.1300;
41.015;1.0076;-0.0044;0.2708;-4.3664;1.0687;-0.9084;29.9418;
41.036;1.0093;0.0015;0.2719;-4.3206;1.0763;-0.8626;29.9418;
41.057;1.0134;-0.0071;0.2738;-4.0916;1.0611;-0.7710;30.0359;
41.078;1.0088;-0.0024;0.2716;-4.1908;1.0687;-0.8931;30.0359;
41.099;1.0071;-0.0066;0.2744;-4.1603;1.0687;-0.8244;30.0359;
41.120;1.0083;-0.0112;0.2613;-4.1679;1.0382;-0.8779;30.1300;
41.141;1.0103;-0.0085;0.2841;-4.0458;0.8779;-0.8626;30.0359;
41.162;1.0117;-0.0076;0.2797;-4.1221;1.0763;-0.9084;29.9418;
41.183;1.0159;-0.0059;0.2755;-4.0534;0.9466;-0.8168;30.0359;
41.204;1.0129;-0.0059;0.2735;-4.0992;0.8855;-0.7481;29.9418;
41.226;1.0146;-0.0024;0.2752;-3.9695;0.8550;-0.8321;29.9418;
41.247;1.0066;-0.0010;0.2833;-4.0382;1.0382;-0.8855;30.0359;
41.268;1.0088;-0.0051;0.2838;-3.9466;1.0382;-0.7176;30.0359;
41.289;1.0076;-0.0068;0.2763;-4.0229;0.9466;-0.7328;30.0359;
41.310;1.0098;-0.0017;0.2649;-4.2824;1.0763;-0.8244;30.0359;
41.331;1.0105;0.0012;0.2777;-4.1450;0.9389;-0.9847;29.9418;
41.352;1.0090;-0.0005;0.2738;-4.1374;1.0992;-0.8168;29.9418;
41.373;1.0105;-0.0024;0.2813;-4.1145;0.9313;-0.8473;29.9418;
41.394;1.0142;-0.0032;0.2733;-4.1756;0.8779;-0.8473;29.9418;
41.415;1.0066;-0.0002;0.2780;-4.2443;1.0840;-0.8702;30.0359;
41.436;1.0122;-0.0024;0.2708;-4.1603;0.8626;-0.7481;30.0359;
41.457;1.0117;-0.0046;0.2722;-4.2366;0.9924;-0.8092;30.0359;
41.478;1.0142;-0.0049;0.2747;-4.1603;0.9542;-0.9160;29.9418;
41.499;1.0110;-0.0044;0.2744;-3.9084;0.9008;-0.9924;29.9418;
41.520;1.0061;-0.0024;0.2813;-4.2137;0.9771;-0.8397;30.0359;
41.541;1.0085;-0.0059;0.2752;-4.1221;1.1145;-0.7939;29.9418;
